"Interval"|"ms"|0|0|1,"Utc"|"ms"|0|0|1,"FB_p"|"bar"|0|300|50,"Volant"|"F"|0.0|300.0|50,"xFR"|"mm"|0.0|5.0|50,"xRR"|"mm"|0.0|5.0|50,"xFL"|"mm"|0.0|5.0|50,"xRL"|"mm"|0.0|5.0|50,"AccelX"|"G"|-3.0|3.0|50,"AccelY"|"G"|-3.0|3.0|50,"AccelZ"|"G"|-3.0|3.0|50,"Yaw"|"Deg/Sec"|-120|120|50,"Pitch"|"Deg/Sec"|-120|120|50,"Roll"|"Deg/Sec"|-120|120|50,"Gsum"|"G"|0.0|3.0|50,"RPM"|""|0|14000|50,"TPS"|"%"|0|100|50,"WaterTemp"|"?C"|0|300|50,"AirTemp"|"?C"|-1000|1000|50,"MAP"|"KPa"|0|255|50,"Lambda"|""|0|1024|50,"WheelSpeed"|"MPH"|0.0|150.0|50,"OilPress"|"PSI"|0|150|50,"FuelPress"|"PSI"|0|150|50,"OilTemp"|"F"|0|300|50,"Battery"|"Volts"|0.0|20.0|50,"FuelCon"|"L/h"|-1000|1000|50,"Gear"|""|0|10|50,"Advance"|"Deg"|-360|360|50,"Injection"|"ms"|-1000|1000|50,"FuelCon"|"L/100km"|-1000|1000|50,"LC_But_Pres"|""|-1000|1000|50,"LC_Active"|""|-1000|1000|50,"RD_Speed"|""|-1000|1000|50,"RUD_Speed"|""|-1000|1000|50,"LD_Speed"|""|-1000|1000|50,"LUD_Speed"|""|-1000|1000|50,"Latitude"|"Degrees"|-180.0|180.0|10,"Longitude"|"Degrees"|-180.0|180.0|10,"Speed"|"kph"|0.0|150.0|10,"Altitude"|"m"|0.0|4000.0|10,"LapCount"|""|0|0|10,"LapTime"|"Min"|0.0|0.0|10,"Sector"|""|0|0|10,"SectorTime"|"Min"|0.0|0.0|10,"ElapsedTime"|"Min"|0.0|0.0|10,"CurrentLap"|""|0|0|10,"Distance"|"km"|0.0|0.0|10,"SessionTime"|"Min"|0.0|0.0|10
428563,1560690734517,15,2.3,2.25,3.53,2.35,5.07,0.57,-0.55,0.86,9,-4,14,0.79,9679,24,84,32,44,883,785.0,630,459,60,122.0,175,1,357,231,139,0,0,758,7413,-22795,784,,,,,,,,,,,,
428583,1560690734537,21,2.29,2.23,3.54,2.3,5.04,0.7,-0.54,0.77,8,-2,15,0.88,9464,23,84,32,42,867,779.0,631,465,60,121.0,175,1,342,224,139,0,0,754,-2826,6389,779,,,,,,,,,,,,
428603,1560690734557,20,2.29,2.19,3.55,2.16,5.07,0.6,-0.56,0.7,8,-1,12,0.82,9450,21,84,32,40,847,770.0,628,458,60,122.0,101,1,327,217,79,0,0,717,-2344,3462,770,,,,,,,,,,,,
428623,1560690734577,22,2.28,2.14,3.55,2.08,5.04,0.6,-0.47,0.56,8,-1,12,0.76,9493,20,84,32,38,826,765.0,637,461,60,122.0,101,1,317,212,79,0,0,700,-31066,204,766,,,,,,,,,,,,
428643,1560690734597,22,2.29,2.08,3.56,2.05,5.04,0.74,-0.51,0.55,7,-2,11,0.9,9498,19,84,32,36,820,763.0,631,466,60,122.0,101,1,311,207,79,0,0,689,-31068,16599,763,45.702152,4.910832,76.13,198.0,3,2.7567,0,0.0,0.395,4,0.32,7.1441
428663,1560690734617,18,2.29,2.06,3.55,2.01,5.08,0.67,-0.48,0.5,7,1,9,0.82,9422,19,84,32,34,819,760.0,631,456,60,122.0,101,1,305,204,79,0,0,675,-22795,12333,760,,,,,,,,,,,,
428683,1560690734637,20,2.29,2.05,3.53,1.99,5.08,0.62,-0.38,0.36,7,1,8,0.73,9286,18,84,32,33,842,751.0,629,463,60,122.0,101,1,302,196,79,0,0,686,-30694,6658,752,,,,,,,,,,,,
428703,1560690734657,21,2.28,2.03,3.52,1.99,5.08,0.69,-0.28,0.31,7,-3,7,0.75,9227,16,84,32,32,866,744.0,626,460,60,122.0,90,1,300,192,68,0,0,686,-31066,-3584,744,,,,,,,,,,,,
428723,1560690734677,22,2.29,2.01,3.53,1.99,5.04,0.82,-0.27,0.25,6,-2,7,0.87,9222,15,84,32,30,896,739.0,626,462,60,122.0,90,1,291,190,68,0,0,662,1524,-26892,737,,,,,,,,,,,,
428743,1560690734697,21,2.28,1.97,3.52,1.96,5.05,0.94,-0.35,0.34,5,-6,6,1.01,9141,15,84,32,29,925,734.0,626,461,60,122.0,90,1,287,189,68,0,0,660,-4091,-10344,735,45.702141,4.910852,73.43,198.0,3,2.7567,0,0.0,0.3967,4,0.32,7.1457
428763,1560690734717,20,2.29,1.94,3.5,1.92,5.07,1.05,-0.44,0.37,5,-4,6,1.14,9053,14,84,32,28,941,728.0,623,460,60,121.0,90,1,282,188,68,0,0,673,-388,-2345,728,,,,,,,,,,,,
428783,1560690734737,21,2.28,1.95,3.52,1.92,5.05,1.15,-0.57,0.45,4,-9,5,1.28,8992,14,84,32,27,958,720.0,621,461,60,121.0,90,1,278,188,68,0,0,675,-2560,-27404,719,,,,,,,,,,,,
428803,1560690734757,20,2.29,1.94,3.62,1.91,5.08,1.24,-0.65,0.49,4,-8,4,1.4,8898,13,84,32,26,948,714.0,624,460,60,121.0,87,1,274,188,63,0,0,630,15647,-10348,714,,,,,,,,,,,,
428823,1560690734777,19,2.28,1.93,3.61,1.91,5.04,1.32,-0.69,0.45,4,-9,4,1.49,8790,13,84,32,25,934,709.0,618,460,60,122.0,87,1,270,188,63,0,0,614,8010,-2826,709,,,,,,,,,,,,
428843,1560690734796,19,2.29,1.93,3.6,1.9,5.08,1.26,-0.65,0.33,4,-5,4,1.42,8636,13,84,32,25,927,701.0,618,464,60,124.0,87,1,270,188,63,0,0,614,16599,3543,701,45.702129,4.910871,70.24,198.0,3,2.7567,0,0.0,0.3983,4,0.33,7.1474
428863,1560690734816,18,2.28,1.94,3.58,1.92,5.06,1.23,-0.61,0.27,4,-8,5,1.37,8581,13,84,32,25,921,694.0,609,455,60,124.0,87,1,270,188,63,0,0,600,16599,-2830,691,,,,,,,,,,,,
428883,1560690734836,19,2.29,1.94,3.58,1.92,5.08,1.27,-0.53,0.23,3,-7,6,1.38,8530,12,84,32,25,926,685.0,606,460,60,123.0,87,1,270,188,63,0,0,585,-26380,4909,681,,,,,,,,,,,,
428903,1560690734856,18,2.29,1.92,3.55,1.88,5.06,1.24,-0.39,0.21,3,-7,6,1.3,8393,12,84,32,26,934,680.0,592,461,60,122.0,88,1,273,181,60,0,0,589,-3038,-5120,680,,,,,,,,,,,,
428923,1560690734876,19,2.27,1.9,3.55,1.86,5.07,1.3,-0.47,0.23,3,-7,5,1.38,8202,12,84,32,26,946,678.0,592,464,60,122.0,88,1,273,175,60,0,0,605,-26380,20993,678,,,,,,,,,,,,
428943,1560690734896,20,2.27,1.87,3.6,1.84,5.07,1.37,-0.42,0.27,1,-8,3,1.44,8057,12,84,32,26,961,671.0,557,461,60,121.0,88,1,273,163,60,0,0,597,31988,506,671,45.702118,4.91089,67.47,198.0,3,2.7567,0,0.0,0.4,4,0.33,7.149
428963,1560690734916,19,2.26,1.88,3.64,1.84,5.07,1.29,-0.35,0.14,1,-6,4,1.34,7888,11,84,32,26,970,662.0,526,468,60,120.0,88,1,272,228,60,0,0,476,-388,3,662,,,,,,,,,,,,
428983,1560690734936,20,2.27,1.88,3.62,1.84,5.04,1.37,-0.28,0.15,0,-5,6,1.4,8113,11,84,32,25,975,662.0,526,460,60,121.0,88,1,270,221,60,0,0,452,24583,-6441,657,,,,,,,,,,,,
429003,1560690734956,19,2.26,1.89,3.56,1.82,5.06,1.32,-0.19,0.07,0,-1,9,1.33,8005,10,84,32,24,984,650.0,538,460,60,122.0,91,1,270,190,60,0,0,425,24583,3576,651,,,,,,,,,,,,
429023,1560690734976,23,2.26,1.89,3.53,1.8,5.04,1.23,-0.2,0.01,1,-2,10,1.24,7934,10,84,32,23,994,646.0,547,462,60,121.0,91,1,269,173,60,0,0,402,11566,-3314,646,,,,,,,,,,,,
429043,1560690734996,20,2.26,1.88,3.5,1.8,5.04,1.3,-0.25,0.04,1,-1,8,1.33,7793,10,84,32,23,1000,640.0,547,463,60,120.0,91,1,267,158,60,0,0,405,-10251,-9211,635,45.702118,4.91089,67.47,198.0,3,2.7567,0,0.0,0.4,4,0.33,7.1507
429063,1560690735008,19,2.26,1.88,3.53,1.78,5.06,1.38,-0.25,0.14,0,-1,7,1.4,7640,10,84,32,23,1004,633.0,554,460,60,120.0,91,1,266,154,60,0,0,408,-5120,-3322,629,,,,,,,,,,,,
429083,1560690735028,17,2.27,1.88,3.53,1.78,5.06,1.44,-0.25,0.21,-1,-3,8,1.46,7497,10,84,32,23,978,625.0,554,458,60,120.0,91,1,264,154,60,0,0,388,-18357,8488,625,,,,,,,,,,,,
429103,1560690735048,20,2.27,1.88,3.5,1.78,5.04,1.5,-0.22,0.32,-2,-7,8,1.51,7467,10,84,32,23,939,615.0,553,464,60,121.0,69,1,264,154,43,0,0,367,26688,-3414,615,,,,,,,,,,,,
429123,1560690735068,23,2.27,1.88,3.52,1.76,5.04,1.55,-0.3,0.35,-3,-4,6,1.58,7335,10,84,32,23,897,612.0,547,462,60,120.0,69,1,263,154,43,0,0,360,28675,-6524,610,,,,,,,,,,,,
429143,1560690735088,23,2.27,1.88,3.53,1.75,5.06,1.36,-0.32,0.27,-1,-4,5,1.39,7192,10,84,32,23,853,607.0,543,462,60,121.0,69,1,261,154,43,0,0,352,-23055,-1562,606,45.702106,4.910906,64.47,198.0,3,2.7567,0,0.0,0.4017,4,0.33,7.1524
429163,1560690735110,21,2.26,1.88,3.52,1.76,5.08,1.32,-0.23,0.11,-0,-4,4,1.34,7067,10,84,32,23,812,600.0,535,462,60,122.0,69,1,260,154,43,0,0,345,-3210,-9211,600,,,,,,,,,,,,
429183,1560690735130,23,2.26,1.89,3.54,1.76,5.05,1.29,-0.2,0.24,-1,-5,2,1.3,6890,10,84,32,23,774,592.0,529,459,60,123.0,69,1,261,153,43,0,0,328,2048,31796,591,,,,,,,,,,,,
429203,1560690735150,22,2.25,1.88,3.54,1.75,5.07,1.36,-0.23,0.17,-2,-7,1,1.38,6768,9,84,32,24,753,583.0,523,465,60,121.0,68,1,262,156,40,0,0,312,15649,21432,583,,,,,,,,,,,,
429223,1560690735170,25,2.25,1.89,3.52,1.74,5.05,1.35,-0.22,0.17,-2,-8,-1,1.37,6663,9,84,32,24,759,581.0,517,461,60,121.0,68,1,263,155,40,0,0,301,-16384,8488,574,,,,,,,,,,,,
429243,1560690735198,22,2.25,1.89,3.53,1.75,5.05,1.3,-0.13,-0.0,-2,-7,-2,1.3,6618,9,84,32,25,774,571.0,510,464,60,122.0,68,1,264,159,40,0,0,278,1267,-21792,569,45.702084,4.910938,58.43,198.0,3,2.7567,0,0.0,0.405,4,0.33,7.154
429263,1560690735218,23,2.25,1.88,3.52,1.74,5.04,1.37,-0.19,0.01,-2,-8,-3,1.38,6481,9,84,32,26,803,565.0,503,461,60,121.0,68,1,269,160,40,0,0,256,-30159,-26615,560,,,,,,,,,,,,
429283,1560690735238,25,2.26,1.88,3.54,1.73,5.08,1.4,-0.22,0.1,-3,-7,-3,1.42,6360,9,84,32,26,830,563.0,500,460,60,123.0,68,1,270,160,40,0,0,246,-32504,10392,556,,,,,,,,,,,,
429303,1560690735258,28,2.25,1.88,3.52,1.71,5.08,1.38,-0.15,0.03,-4,-5,-3,1.39,6237,9,84,32,27,852,556.0,493,461,60,123.0,68,1,274,161,38,0,0,228,-22359,-9166,548,,,,,,,,,,,,
429323,1560690735278,27,2.25,1.88,3.52,1.7,5.05,1.29,-0.06,-0.01,-3,-5,-3,1.3,6097,9,84,32,27,869,550.0,479,463,60,123.0,68,1,275,161,38,0,0,223,-32248,18584,539,,,,,,,,,,,,
429343,1560690735298,26,2.25,1.88,3.52,1.71,5.06,1.19,0.04,-0.04,-2,-3,-4,1.19,5956,9,84,32,27,870,544.0,475,465,60,123.0,68,1,274,161,38,0,0,221,-506,-21944,530,45.702076,4.910953,55.25,198.0,3,2.7567,0,0.0,0.4067,4,0.33,7.1557
429363,1560690735318,25,2.26,1.88,3.52,1.71,5.05,1.15,0.16,-0.07,-1,-3,-4,1.16,5813,9,84,32,28,867,533.0,467,463,60,123.0,68,1,275,162,38,0,0,201,14504,-3414,522,,,,,,,,,,,,
429383,1560690735338,25,2.27,1.89,3.51,1.71,5.04,1.24,0.18,-0.08,-1,-6,-5,1.25,5662,9,84,32,29,846,529.0,461,463,60,123.0,68,1,275,162,38,0,0,188,6274,18584,514,,,,,,,,,,,,
429403,1560690735358,29,2.27,1.89,3.51,1.7,5.04,1.32,0.16,-0.13,-3,-8,-6,1.32,5506,8,84,32,30,827,525.0,445,460,60,121.0,66,1,275,162,34,0,0,177,2524,10392,507,,,,,,,,,,,,
429423,1560690735378,26,2.29,1.88,3.51,1.68,5.05,1.07,0.1,-0.14,-4,-2,-8,1.08,5398,8,84,32,32,813,518.0,438,460,60,123.0,66,1,277,161,34,0,0,178,16383,1,500,,,,,,,,,,,,
429443,1560690735396,29,2.31,1.87,3.51,1.7,5.05,1.17,0.18,-0.08,-4,-7,-7,1.18,5238,8,84,32,33,798,511.0,420,460,60,121.0,66,1,278,167,34,0,0,175,10994,505,497,45.702064,4.910967,51.62,198.0,3,2.7567,0,0.0,0.4083,4,0.34,7.1574
429463,1560690735416,23,2.31,1.88,3.51,1.69,5.06,0.93,0.07,-0.14,-5,-1,-8,0.93,5111,8,84,32,34,805,499.0,416,457,60,123.0,66,1,280,172,34,0,0,164,-22519,-1818,488,,,,,,,,,,,,
429483,1560690735436,25,2.31,1.88,3.51,1.67,5.05,1.04,0.02,-0.12,-7,-4,-7,1.04,4964,8,84,32,36,813,493.0,400,462,60,121.0,66,1,284,183,34,0,0,129,-6528,-3866,481,,,,,,,,,,,,
429503,1560690735456,27,2.32,1.88,3.51,1.68,5.04,1.11,0.14,-0.04,-6,-6,-8,1.12,4861,8,84,32,37,827,490.0,395,457,60,123.0,71,1,283,186,34,0,0,129,-1818,1,473,,,,,,,,,,,,
429523,1560690735476,27,2.33,1.88,3.51,1.68,5.04,1.15,0.15,-0.09,-5,-3,-9,1.16,4734,8,84,32,38,841,482.0,385,461,60,124.0,71,1,281,188,34,0,0,128,-899,-6644,467,,,,,,,,,,,,
429543,1560690735496,26,2.34,1.87,3.5,1.68,5.06,1.14,0.12,-0.13,-6,-3,-9,1.15,4654,8,84,32,40,849,476.0,371,462,60,124.0,71,1,284,190,34,0,0,129,3576,6870,463,45.702057,4.91098,48.21,198.0,3,2.7567,0,0.0,0.41,4,0.34,7.159
429563,1560690735516,28,2.34,1.88,3.49,1.68,5.07,1.1,0.13,-0.2,-7,-0,-8,1.1,4523,8,84,32,40,858,467.0,362,466,60,123.0,71,1,278,188,34,0,0,124,243,-30454,454,,,,,,,,,,,,
429583,1560690735536,25,2.36,1.88,3.49,1.66,5.05,1.06,0.1,-0.25,-6,2,-8,1.06,4407,8,84,32,41,870,462.0,353,468,60,124.0,71,1,276,185,34,0,0,123,17628,-122,448,,,,,,,,,,,,
429603,1560690735556,24,2.37,1.88,3.48,1.67,5.04,1.15,0.1,-0.2,-5,2,-8,1.16,4279,8,84,32,41,883,453.0,347,465,60,124.0,67,1,270,183,30,0,0,155,-8985,-32256,437,,,,,,,,,,,,
429623,1560690735576,24,2.37,1.87,3.48,1.68,5.03,1.24,0.13,-0.13,-6,-3,-8,1.25,4169,8,84,32,41,888,446.0,333,459,60,122.0,67,1,266,180,30,0,0,178,21432,26880,433,,,,,,,,,,,,
429643,1560690735596,28,2.36,1.88,3.48,1.68,5.05,1.24,0.14,-0.18,-6,-2,-9,1.25,4096,7,84,32,42,892,436.0,330,461,60,121.0,67,1,266,181,30,0,0,189,5600,21760,430,45.702049,4.910992,45.07,198.0,3,2.7567,0,0.0,0.4117,4,0.34,7.1607
429663,1560690735616,21,2.37,1.87,3.48,1.67,5.08,1.2,0.16,-0.19,-7,1,-8,1.21,3962,7,84,32,43,900,432.0,323,458,60,123.0,67,1,268,182,30,0,0,199,-3322,250,421,,,,,,,,,,,,
429683,1560690735636,22,2.36,1.88,3.47,1.67,5.03,1.25,0.17,-0.16,-7,-2,-8,1.27,3920,7,84,32,43,908,427.0,317,465,60,121.0,67,1,265,182,30,0,0,208,-3856,-1,414,,,,,,,,,,,,
429703,1560690735656,26,2.36,1.89,3.47,1.65,5.05,1.26,0.17,-0.18,-7,-1,-9,1.27,3901,7,84,32,43,912,419.0,310,463,60,123.0,62,1,264,182,26,0,0,218,7154,250,408,,,,,,,,,,,,
429723,1560690735676,21,2.38,1.88,3.47,1.63,5.07,1.28,0.21,-0.21,-7,-1,-9,1.3,3896,7,84,32,43,915,412.0,309,457,60,123.0,62,1,263,181,26,0,0,238,13040,-1532,401,,,,,,,,,,,,
429743,1560690735696,26,2.38,1.88,3.46,1.62,5.04,1.35,0.21,-0.13,-7,-3,-8,1.36,3934,7,84,32,44,896,407.0,298,461,60,122.0,62,1,270,185,26,0,0,206,-26615,-1480,395,45.702042,4.911003,41.66,197.9,3,2.7567,0,0.0,0.4133,4,0.34,7.1624
429763,1560690735716,20,2.38,1.88,3.47,1.62,5.05,1.28,0.21,-0.2,-7,0,-9,1.3,3907,7,84,32,44,873,401.0,302,465,60,123.0,62,1,268,185,26,0,0,194,11545,250,389,,,,,,,,,,,,
429783,1560690735736,22,2.36,1.89,3.47,1.62,5.08,1.35,0.24,-0.19,-8,-3,-9,1.37,3863,7,84,32,44,849,394.0,296,462,60,121.0,62,1,265,184,26,0,0,191,-1818,250,380,,,,,,,,,,,,
429803,1560690735756,23,2.34,1.9,3.47,1.6,5.08,1.28,0.25,-0.24,-8,1,-9,1.3,3800,7,84,32,45,824,386.0,292,465,60,123.0,68,1,264,187,26,0,0,199,-3866,5134,373,,,,,,,,,,,,
429823,1560690735776,23,2.33,1.92,3.46,1.58,5.07,1.34,0.28,-0.18,-8,-2,-9,1.37,3730,7,84,32,45,794,381.0,291,457,60,123.0,68,1,258,186,26,0,0,215,-18948,-1,364,,,,,,,,,,,,
429843,1560690735797,19,2.31,1.96,3.46,1.56,5.04,1.3,0.35,-0.25,-9,0,-10,1.35,3685,7,84,32,46,763,376.0,291,466,60,123.0,68,1,256,188,26,0,0,233,3,14326,354,45.702034,4.911014,38.28,197.9,3,2.7567,0,0.0,0.415,4,0.34,7.1641
429863,1560690735817,24,2.31,1.99,3.43,1.54,5.05,1.38,0.37,-0.19,-10,-0,-11,1.43,3601,7,84,32,46,749,369.0,285,459,60,120.0,68,1,249,187,26,0,0,258,-6656,14412,348,,,,,,,,,,,,
429883,1560690735837,18,2.32,1.98,3.43,1.53,5.05,1.4,0.38,-0.2,-10,-2,-12,1.45,3551,7,84,32,47,743,362.0,287,465,60,123.0,68,1,245,189,26,0,0,275,2790,-1481,339,,,,,,,,,,,,
429903,1560690735857,22,2.32,1.98,3.45,1.5,5.06,1.37,0.37,-0.16,-10,-2,-14,1.42,3649,7,84,32,48,747,357.0,282,461,60,124.0,77,1,255,194,26,0,0,228,-6644,250,334,,,,,,,,,,,,
429923,1560690735877,17,2.34,1.97,3.44,1.5,5.07,1.36,0.38,-0.17,-10,-1,-15,1.41,3799,7,84,32,48,754,351.0,285,458,60,123.0,77,1,270,197,26,0,0,194,28553,250,328,,,,,,,,,,,,
429943,1560690735897,20,2.34,1.98,3.44,1.52,5.07,1.38,0.33,-0.15,-11,-0,-15,1.42,3742,7,84,32,48,765,344.0,283,464,60,123.0,77,1,264,196,26,0,0,200,-10554,-202,324,45.70203,4.911024,35.05,197.9,3,2.7567,0,0.0,0.4167,4,0.34,7.1657
429963,1560690735917,17,2.32,2.01,3.42,1.52,5.07,1.39,0.35,-0.16,-12,-1,-15,1.43,3678,7,84,32,48,777,340.0,285,462,60,123.0,77,1,258,195,26,0,0,209,3346,-1,313,,,,,,,,,,,,
429983,1560690735937,17,2.31,2.0,3.38,1.51,5.05,1.35,0.39,-0.15,-12,1,-15,1.4,3652,7,85,32,49,793,330.0,283,461,60,123.0,77,1,255,199,26,0,0,246,175,-1,309,,,,,,,,,,,,
430003,1560690735957,16,2.29,2.04,3.34,1.47,5.07,1.37,0.4,-0.15,-13,-1,-15,1.42,3605,6,85,32,49,810,325.0,280,462,60,121.0,87,1,250,198,27,0,0,283,155,-1,305,,,,,,,,,,,,
430023,1560690735977,14,2.27,2.09,3.33,1.45,5.04,1.29,0.47,-0.2,-12,1,-16,1.37,3596,6,85,33,50,822,317.0,283,466,60,123.0,87,1,249,201,27,0,0,287,-28416,31744,294,,,,,,,,,,,,
430043,1560690735992,16,2.26,2.06,3.34,1.43,5.05,1.34,0.49,-0.11,-11,-1,-17,1.42,3728,6,85,33,50,826,311.0,281,462,60,122.0,87,1,264,203,27,0,0,261,-32256,-1482,293,45.702023,4.911033,31.97,197.9,3,2.7567,0,0.0,0.4183,4,0.34,7.1674
430063,1560690736012,11,2.25,2.07,3.34,1.46,5.05,1.24,0.51,-0.13,-11,2,-16,1.34,3754,7,85,33,50,834,307.0,282,466,60,123.0,87,1,266,205,27,0,0,263,30720,-1482,290,,,,,,,,,,,,
430083,1560690736032,7,2.22,2.14,3.32,1.49,5.04,1.32,0.55,-0.01,-12,-1,-15,1.43,3769,6,85,33,49,845,302.0,281,455,60,120.0,87,1,268,205,27,0,0,280,105,250,283,,,,,,,,,,,,
430103,1560690736052,4,2.17,2.23,3.23,1.49,5.06,1.28,0.58,-0.0,-13,1,-14,1.41,3746,6,85,33,50,855,298.0,282,466,60,124.0,98,1,266,200,28,0,0,291,95,-1482,279,,,,,,,,,,,,
430123,1560690736072,6,2.15,2.3,3.14,1.49,5.07,1.33,0.61,0.11,-13,0,-13,1.47,3665,7,85,33,50,861,293.0,283,457,60,121.0,98,1,257,203,28,0,0,289,21760,-1,278,,,,,,,,,,,,
430143,1560690736097,-2,2.13,2.35,3.11,1.51,5.06,1.22,0.66,0.05,-12,1,-13,1.38,3671,7,85,33,50,871,292.0,281,461,60,123.0,98,1,257,203,28,0,0,287,80,5120,278,45.702019,4.911042,28.77,197.9,3,2.7567,0,0.0,0.42,4,0.34,7.1691
430163,1560690736117,4,2.13,2.34,3.11,1.54,5.08,1.26,0.64,0.07,-11,1,-14,1.41,3751,7,84,33,50,885,289.0,281,457,60,122.0,98,1,266,205,28,0,0,283,0,-1,279,,,,,,,,,,,,
430183,1560690736137,1,2.12,2.3,3.12,1.56,5.04,1.24,0.65,0.06,-10,2,-13,1.4,3859,7,84,33,50,897,287.0,286,466,60,123.0,98,1,278,203,28,0,0,282,41,5120,275,,,,,,,,,,,,
430203,1560690736157,-0,2.12,2.24,3.17,1.55,5.07,1.22,0.62,0.07,-9,1,-14,1.37,4074,7,84,33,49,904,283.0,286,457,60,122.0,106,1,293,207,29,0,0,267,24064,13874,270,,,,,,,,,,,,
430223,1560690736177,-0,2.12,2.18,3.22,1.6,5.04,1.24,0.54,0.18,-8,-1,-15,1.35,4375,6,85,33,49,910,278.0,293,463,60,122.0,106,1,296,212,29,0,0,264,630,13602,266,,,,,,,,,,,,
430243,1560690736197,-1,2.1,2.14,3.25,1.68,5.04,1.29,0.51,0.25,-8,-2,-15,1.38,4470,6,85,33,48,917,276.0,308,458,60,122.0,106,1,297,210,29,0,0,253,250,-1,260,45.702015,4.91105,27.22,197.9,3,2.7567,0,0.0,0.4217,4,0.34,7.1707
430263,1560690736217,-1,2.09,2.14,3.26,1.73,5.04,1.29,0.57,0.31,-8,-6,-15,1.41,4683,6,85,33,48,921,271.0,314,460,60,122.0,106,1,300,214,29,0,0,252,-1281,-214,259,,,,,,,,,,,,
430283,1560690736237,4,2.09,2.14,3.26,1.76,5.07,1.2,0.58,0.29,-8,-5,-16,1.33,4785,6,85,33,48,920,271.0,326,459,60,121.0,106,1,301,216,29,0,0,257,-1281,-1,255,,,,,,,,,,,,
430303,1560690736257,0,2.08,2.15,3.26,1.75,5.05,1.04,0.58,0.22,-8,-3,-17,1.19,4862,6,85,33,48,917,267.0,336,458,60,123.0,154,1,303,218,39,0,0,256,-1,-1494,252,,,,,,,,,,,,
430323,1560690736277,0,2.07,2.16,3.25,1.76,5.04,1.13,0.5,0.31,-10,-1,-18,1.24,4890,6,85,33,48,910,268.0,351,467,60,123.0,154,1,303,218,39,0,0,259,-1,-1445,249,,,,,,,,,,,,
430343,1560690736297,2,2.07,2.15,3.25,1.76,5.08,1.22,0.51,0.36,-11,-6,-18,1.32,4882,6,85,33,48,903,268.0,357,455,60,121.0,154,1,303,218,39,0,0,262,-1,23482,247,45.702015,4.911059,25.48,197.9,3,2.7567,0,0.0,0.4233,4,0.35,7.1724
430363,1560690736317,3,2.07,2.16,3.22,1.77,5.05,1.03,0.51,0.39,-10,-5,-19,1.15,4844,6,85,33,47,897,267.0,363,456,60,123.0,154,1,302,217,39,0,0,266,-1,250,247,,,,,,,,,,,,
430383,1560690736337,5,2.07,2.17,3.18,1.77,5.04,0.9,0.54,0.29,-10,0,-21,1.05,4758,6,85,33,48,891,268.0,361,461,60,123.0,154,1,301,213,39,0,0,266,-1,-1445,246,,,,,,,,,,,,
430403,1560690736357,-1,2.07,2.17,3.17,1.77,5.08,0.79,0.54,0.18,-11,1,-20,0.96,4696,6,85,33,47,888,267.0,361,459,60,123.0,151,1,300,211,37,0,0,265,-1,-1445,246,,,,,,,,,,,,
430423,1560690736377,1,2.07,2.17,3.16,1.77,5.07,0.76,0.41,0.19,-12,5,-20,0.86,4645,6,85,33,47,885,265.0,358,464,60,123.0,151,1,300,210,37,0,0,264,-1,23482,244,,,,,,,,,,,,
430443,1560690736397,-1,2.08,2.17,3.17,1.77,5.04,0.8,0.3,0.24,-13,4,-19,0.86,4651,6,85,33,47,888,264.0,352,465,60,122.0,151,1,300,211,37,0,0,260,-1,250,242,45.702011,4.911068,24.36,197.9,3,2.7567,0,0.0,0.425,4,0.35,7.174
430463,1560690736417,1,2.1,2.17,3.19,1.78,5.04,0.85,0.23,0.32,-14,4,-19,0.88,4597,6,85,33,47,891,263.0,351,466,60,123.0,151,1,299,209,37,0,0,258,-1,-17920,243,,,,,,,,,,,,
430483,1560690736437,-0,2.13,2.17,3.23,1.78,5.05,0.96,0.17,0.37,-15,2,-19,0.97,4575,6,85,33,47,900,262.0,346,456,60,121.0,151,1,299,209,37,0,0,256,-1,250,241,,,,,,,,,,,,
430503,1560690736457,0,2.17,2.17,3.24,1.81,5.04,1.06,0.11,0.43,-15,-2,-20,1.06,4539,6,85,33,47,908,260.0,346,463,60,121.0,145,1,298,208,35,0,0,254,-1,250,241,,,,,,,,,,,,
430523,1560690736477,-2,2.21,2.17,3.27,1.8,5.05,1.15,0.13,0.48,-15,-4,-19,1.16,4562,6,85,33,47,915,258.0,346,460,60,122.0,145,1,298,209,35,0,0,252,-10440,250,240,,,,,,,,,,,,
430543,1560690736497,-2,2.26,2.16,3.29,1.86,5.07,1.24,0.11,0.6,-14,-9,-19,1.24,4550,6,85,33,47,921,256.0,341,459,60,120.0,145,1,298,206,35,0,0,249,-1,-1484,241,45.702007,4.911075,24.07,197.9,3,2.7567,0,0.0,0.4267,4,0.35,7.1757
430563,1560690736517,-2,2.3,2.15,3.3,1.89,5.06,1.32,0.09,0.66,-13,-12,-18,1.32,4531,6,85,33,46,925,251.0,342,461,60,121.0,145,1,295,205,35,0,0,244,-214,-25600,242,,,,,,,,,,,,
430583,1560690736537,-0,2.31,2.14,3.32,1.9,5.06,1.39,0.13,0.7,-11,-16,-17,1.39,4522,6,85,33,46,929,247.0,340,463,60,121.0,145,1,295,205,35,0,0,240,-1494,250,242,,,,,,,,,,,,
430603,1560690736557,-0,2.36,2.12,3.33,1.92,5.06,1.45,0.14,0.75,-9,-17,-15,1.46,4516,6,85,33,46,928,243.0,343,457,60,121.0,144,1,295,205,35,0,0,241,-1445,-17920,243,,,,,,,,,,,,
430623,1560690736577,-0,2.39,2.11,3.34,1.94,5.04,1.51,0.14,0.87,-8,-19,-13,1.52,4536,6,85,33,46,926,243.0,341,458,60,121.0,144,1,295,205,35,0,0,238,-1484,-17920,243,,,,,,,,,,,,
430643,1560690736597,-1,2.45,2.09,3.36,2.0,5.07,1.56,0.15,0.93,-6,-21,-12,1.57,4488,6,85,33,46,923,243.0,340,463,60,122.0,144,1,294,204,35,0,0,234,13468,250,243,45.702007,4.911083,23.47,197.9,3,2.7567,0,0.0,0.4283,4,0.35,7.1774
430663,1560690736617,-1,2.49,2.07,3.4,2.04,5.05,1.57,0.16,0.94,-4,-24,-10,1.58,4449,6,85,33,46,919,245.0,341,458,60,121.0,144,1,293,204,35,0,0,234,-1483,-1445,245,,,,,,,,,,,,
430683,1560690736637,-1,2.56,2.05,3.43,2.08,5.08,1.62,0.16,0.98,-2,-25,-8,1.62,4362,9,85,33,46,917,248.0,340,453,60,121.0,144,1,292,201,35,0,0,230,250,23482,248,,,,,,,,,,,,
430703,1560690736657,-0,2.61,2.04,3.46,2.14,5.05,1.64,0.08,1.04,0,-25,-4,1.64,4357,13,85,33,47,916,249.0,333,458,60,123.0,133,1,295,205,33,0,0,227,10824,15360,249,,,,,,,,,,,,
430723,1560690736677,-0,2.64,2.01,3.52,2.17,5.08,1.63,-0.0,1.03,2,-22,-1,1.63,4378,19,85,33,50,912,249.0,332,463,60,122.0,133,1,296,216,33,0,0,222,10318,250,249,,,,,,,,,,,,
430743,1560690736697,1,2.66,2.0,3.54,2.18,5.07,1.53,-0.1,0.93,4,-19,3,1.54,4336,25,85,33,53,907,251.0,332,464,60,123.0,133,1,297,223,33,0,0,217,250,250,251,45.702004,4.911091,23.15,197.9,3,2.7567,0,0.0,0.43,4,0.35,7.179
430763,1560690736717,1,2.68,2.0,3.54,2.2,5.06,1.38,-0.18,0.81,6,-15,8,1.39,4422,31,85,33,57,902,253.0,331,461,60,124.0,133,1,296,246,33,0,0,216,-1532,15360,253,,,,,,,,,,,,
430783,1560690736737,1,2.69,2.01,3.55,2.21,5.04,1.26,-0.25,0.73,8,-11,12,1.28,4484,37,85,33,63,898,254.0,331,468,60,123.0,133,1,293,277,33,0,0,213,-17920,250,254,,,,,,,,,,,,
430803,1560690736757,0,2.71,2.01,3.54,2.21,5.08,1.2,-0.34,0.71,9,-10,14,1.25,4604,41,85,33,69,892,255.0,336,474,60,124.0,196,1,290,313,50,0,0,211,250,250,254,,,,,,,,,,,,
430823,1560690736777,0,2.73,2.0,3.53,2.22,5.06,1.21,-0.42,0.68,11,-10,17,1.28,4711,47,85,33,75,886,253.0,337,470,60,122.0,196,1,287,340,50,0,0,209,1088,10812,253,,,,,,,,,,,,
430843,1560690736797,3,2.76,2.0,3.52,2.22,5.03,1.27,-0.41,0.63,14,-11,21,1.34,4790,51,85,33,80,882,255.0,340,468,60,122.0,196,1,285,401,50,0,0,208,1088,250,255,45.702,4.911099,23.17,197.9,3,2.7567,0,0.0,0.4317,4,0.35,7.1807
430863,1560690736817,3,2.79,2.0,3.54,2.22,5.06,1.14,-0.56,0.61,17,-11,24,1.27,4972,53,85,33,84,879,256.0,345,452,60,122.0,196,1,282,458,50,0,0,207,250,250,256,,,,,,,,,,,,
430883,1560690736837,1,2.8,2.0,3.54,2.22,5.06,1.07,-0.59,0.55,18,-8,26,1.22,4993,56,85,33,87,876,256.0,355,461,60,123.0,196,1,281,472,50,0,0,206,-1533,16896,257,,,,,,,,,,,,
430903,1560690736857,1,2.83,2.01,3.57,2.26,5.04,1.13,-0.55,0.55,20,-11,28,1.26,5000,57,85,33,89,870,258.0,359,462,60,122.0,350,1,280,480,90,0,0,213,966,16896,259,,,,,,,,,,,,
430923,1560690736877,4,2.83,2.02,3.57,2.28,5.06,1.03,-0.62,0.49,23,-9,30,1.21,4875,58,85,33,90,864,260.0,357,451,60,123.0,350,1,282,477,90,0,0,260,-1533,-1,262,,,,,,,,,,,,
430943,1560690736896,3,2.86,2.03,3.55,2.3,5.05,0.96,-0.69,0.45,24,-6,33,1.18,4774,58,85,33,92,860,261.0,355,466,60,124.0,350,1,284,496,90,0,0,293,250,14337,264,45.701996,4.911106,22.47,197.9,3,2.7567,0,0.0,0.4333,4,0.35,7.1824
430963,1560690736916,0,2.86,2.03,3.55,2.3,5.02,0.92,-0.73,0.47,25,-5,35,1.17,4885,59,85,33,93,869,265.0,353,467,60,123.0,350,1,282,551,90,0,0,265,16384,-1281,265,,,,,,,,,,,,
430983,1560690736936,0,2.9,2.04,3.55,2.32,5.07,0.96,-0.73,0.5,26,-6,37,1.2,4913,59,85,33,93,891,264.0,356,459,60,122.0,350,1,281,552,90,0,0,233,-1532,-1,264,,,,,,,,,,,,
431003,1560690736956,5,2.9,2.05,3.55,2.32,5.05,0.93,-0.76,0.48,29,-6,37,1.2,4992,59,85,33,93,913,268.0,356,454,60,121.0,387,1,280,555,103,0,0,254,-1532,-1,268,,,,,,,,,,,,
431023,1560690736976,0,2.9,2.05,3.55,2.33,5.04,0.81,-0.79,0.46,30,-5,38,1.13,5026,59,85,33,93,940,270.0,361,463,60,123.0,387,1,279,555,103,0,0,289,1210,-1,270,,,,,,,,,,,,
431043,1560690736996,4,2.91,2.04,3.53,2.34,5.03,0.91,-0.75,0.48,31,-6,41,1.18,5163,60,85,33,92,980,273.0,363,457,60,121.0,387,1,285,550,103,0,0,296,-1532,-1,273,45.701996,4.911106,22.47,197.9,3,2.7567,0,0.0,0.4333,4,0.35,7.1841
431063,1560690737010,-2,2.91,2.05,3.54,2.33,5.07,0.79,-0.81,0.56,34,-5,43,1.13,5256,60,85,33,91,1052,275.0,371,455,60,123.0,387,1,288,507,103,0,0,274,-1532,-1281,275,,,,,,,,,,,,
431083,1560690737030,5,2.9,2.06,3.55,2.36,5.04,0.89,-0.78,0.6,34,-6,45,1.18,5332,60,85,33,91,1119,280.0,380,459,60,121.0,387,1,291,507,103,0,0,266,19968,-1534,280,,,,,,,,,,,,
431103,1560690737050,-0,2.91,2.06,3.55,2.38,5.04,0.75,-0.79,0.64,36,-5,46,1.09,5389,60,85,33,91,1167,284.0,383,461,60,123.0,363,1,293,506,103,0,0,317,19968,30208,284,,,,,,,,,,,,
431123,1560690737070,0,2.9,2.08,3.54,2.39,5.04,0.72,-0.83,0.71,38,-5,46,1.11,5474,60,85,33,90,1206,289.0,386,452,60,122.0,363,1,297,489,103,0,0,306,10318,-16896,289,,,,,,,,,,,,
431143,1560690737096,3,2.91,2.11,3.54,2.42,5.05,0.76,-0.84,0.68,38,-6,47,1.13,5511,60,85,33,90,1227,292.0,393,466,60,122.0,363,1,298,490,103,0,0,274,10824,20480,292,45.701992,4.911118,23.69,197.9,3,2.7567,0,0.0,0.4367,4,0.35,7.1857
431163,1560690737116,2,2.9,2.1,3.55,2.43,5.08,0.65,-0.83,0.68,39,-4,47,1.06,5534,60,85,33,90,1246,296.0,400,469,60,123.0,363,1,299,490,103,0,0,277,8704,24320,296,,,,,,,,,,,,
431183,1560690737136,-0,2.88,2.1,3.55,2.44,5.05,0.71,-0.95,0.79,40,-6,48,1.18,5607,60,85,33,89,1217,299.0,404,460,60,123.0,363,1,305,487,103,0,0,323,-25600,90,299,,,,,,,,,,,,
431203,1560690737156,2,2.85,2.1,3.55,2.45,5.04,0.78,-1.05,0.75,42,-7,49,1.31,5735,60,85,33,89,1190,302.0,406,455,60,121.0,346,1,309,488,104,0,0,319,250,25600,302,,,,,,,,,,,,
431223,1560690737176,0,2.81,2.1,3.55,2.46,5.04,0.84,-1.11,0.79,42,-6,51,1.39,5918,60,85,33,88,1159,306.0,416,458,60,122.0,346,1,320,487,104,0,0,299,-1445,-32256,306,,,,,,,,,,,,
431243,1560690737196,1,2.75,2.1,3.54,2.48,5.04,0.89,-1.11,0.8,42,-6,53,1.42,6036,60,85,33,88,1130,311.0,426,458,60,122.0,346,1,326,490,104,0,0,305,10812,140,313,45.701984,4.911124,25.07,197.9,3,2.7567,0,0.0,0.4383,4,0.35,7.1874
431263,1560690737216,0,2.65,2.14,3.47,2.5,5.05,0.91,-1.09,0.83,41,-5,55,1.42,6073,60,85,33,88,1125,317.0,433,456,60,121.0,346,1,328,491,104,0,0,337,10818,155,317,,,,,,,,,,,,
431283,1560690737236,-0,2.54,2.23,3.4,2.53,5.06,0.98,-1.09,0.87,40,-5,56,1.47,6111,60,85,34,88,1120,319.0,439,457,60,121.0,346,1,330,492,104,0,0,333,-1,-22016,319,,,,,,,,,,,,
431303,1560690737256,1,2.45,2.32,3.27,2.51,5.08,1.03,-1.0,0.98,38,-4,54,1.44,6113,60,85,34,87,1111,322.0,441,453,60,123.0,356,1,333,489,114,0,0,297,14337,13,322,,,,,,,,,,,,
431323,1560690737276,2,2.36,2.41,3.14,2.5,5.05,1.03,-0.88,0.99,36,-4,53,1.36,6034,60,85,34,87,1100,321.0,443,454,60,122.0,356,1,330,490,114,0,0,293,250,4838,321,,,,,,,,,,,,
431343,1560690737298,0,2.26,2.52,3.06,2.49,5.04,0.96,-0.75,0.97,35,-3,51,1.22,5942,60,85,34,87,1092,319.0,441,453,60,121.0,356,1,325,488,114,0,0,305,41,-31222,319,45.701981,4.91113,26.67,197.9,3,2.7567,0,0.0,0.44,4,0.35,7.1891
431363,1560690737318,1,2.17,2.57,3.02,2.47,5.04,1.0,-0.64,0.95,31,-3,47,1.19,5868,60,85,34,87,1085,316.0,432,453,60,122.0,356,1,321,484,114,0,0,317,95,-23296,316,,,,,,,,,,,,
431383,1560690737338,0,2.1,2.6,2.97,2.45,5.07,1.03,-0.54,0.92,26,-3,43,1.16,5870,54,85,34,86,1073,314.0,432,451,60,121.0,356,1,325,481,114,0,0,325,115,155,314,,,,,,,,,,,,
431403,1560690737358,0,2.02,2.63,2.91,2.41,5.04,1.02,-0.44,0.88,21,-3,38,1.11,5978,53,85,34,85,1062,315.0,435,456,60,121.0,343,1,334,479,108,0,0,329,-29696,150,313,,,,,,,,,,,,
431423,1560690737378,1,1.96,2.66,2.88,2.32,5.05,1.05,-0.32,0.87,16,-3,33,1.1,6101,53,85,34,84,1055,321.0,443,456,60,121.0,343,1,343,480,108,0,0,332,-25856,160,313,,,,,,,,,,,,
431443,1560690737396,3,1.91,2.7,2.87,2.24,5.05,1.09,-0.25,0.87,13,-3,28,1.12,6198,53,85,34,83,1049,329.0,447,451,60,122.0,343,1,349,481,108,0,0,337,-20736,-32559,312,45.701977,4.911134,29.29,197.9,3,2.7567,0,0.0,0.4417,4,0.35,7.1907
431463,1560690737416,6,1.87,2.73,2.91,2.23,5.04,1.02,-0.16,0.93,10,-5,23,1.04,6275,53,85,34,83,1049,332.0,454,457,60,123.0,343,1,352,480,108,0,0,338,-32559,4838,314,,,,,,,,,,,,
431483,1560690737436,2,1.83,2.74,2.96,2.23,5.04,1.03,-0.04,0.89,7,-6,19,1.04,6355,52,85,34,83,1049,336.0,460,456,60,123.0,343,1,355,482,108,0,0,350,13,6870,312,,,,,,,,,,,,
431503,1560690737456,-0,1.8,2.74,2.95,2.22,5.06,0.94,0.01,0.83,4,-4,15,0.94,6494,52,85,34,83,1054,334.0,471,464,60,121.0,375,1,360,483,117,0,0,349,-14714,-14714,313,,,,,,,,,,,,
431523,1560690737476,4,1.79,2.73,2.94,2.2,5.06,0.93,0.05,0.93,1,-4,10,0.93,6595,52,85,34,82,1060,344.0,476,457,60,123.0,375,1,364,479,117,0,0,354,-10554,8841,315,,,,,,,,,,,,
431543,1560690737496,1,1.79,2.74,2.92,2.2,5.04,0.86,0.19,0.89,-1,-3,6,0.88,6701,52,85,34,82,1049,347.0,485,461,60,122.0,375,1,368,482,117,0,0,357,8841,-6458,316,45.701969,4.91114,31.66,197.9,3,2.7567,0,0.0,0.4433,4,0.35,7.1924
431563,1560690737516,3,1.8,2.73,2.94,2.19,5.06,0.86,0.18,0.94,-4,-4,0,0.88,6793,52,85,34,82,1034,350.0,492,461,60,122.0,375,1,371,483,117,0,0,361,-30454,-6640,318,,,,,,,,,,,,
431583,1560690737536,3,1.82,2.73,2.94,2.19,5.08,0.77,0.19,0.84,-6,-4,-3,0.79,6845,52,85,34,81,1015,353.0,497,459,60,121.0,375,1,374,477,117,0,0,369,-6644,-6458,321,,,,,,,,,,,,
431603,1560690737556,1,1.83,2.73,2.91,2.19,5.08,0.89,0.25,0.89,-9,-7,-6,0.92,6843,54,85,34,81,996,360.0,501,458,60,122.0,387,1,373,477,124,0,0,370,-14707,0,324,,,,,,,,,,,,
431623,1560690737576,2,1.86,2.73,2.87,2.17,5.04,0.88,0.29,0.82,-11,-5,-7,0.93,6855,57,85,34,82,971,361.0,496,462,60,121.0,387,1,373,492,124,0,0,370,-6458,-6405,326,,,,,,,,,,,,
431643,1560690737597,2,1.88,2.71,2.87,2.14,5.08,0.82,0.4,0.77,-13,-3,-9,0.92,6918,59,85,33,83,944,366.0,502,457,60,123.0,387,1,375,493,124,0,0,376,486,1,332,45.701958,4.911145,32.94,197.9,3,2.7567,0,0.0,0.445,4,0.35,7.194
431663,1560690737617,1,1.89,2.72,2.87,2.11,5.06,0.9,0.4,0.86,-16,-3,-13,0.98,7046,62,85,33,85,929,373.0,502,463,60,121.0,387,1,379,506,124,0,0,376,-6656,-31744,333,,,,,,,,,,,,
431683,1560690737637,4,1.91,2.72,2.87,2.09,5.04,0.8,0.43,0.81,-17,-1,-15,0.91,7219,65,85,33,86,923,379.0,514,458,60,121.0,387,1,390,516,124,0,0,383,8200,-3866,335,,,,,,,,,,,,
431703,1560690737657,3,1.92,2.72,2.87,2.08,5.05,0.79,0.47,0.77,-18,-1,-16,0.92,7393,67,85,33,86,904,382.0,529,458,60,122.0,429,1,401,520,144,0,0,385,19125,19125,337,,,,,,,,,,,,
431723,1560690737677,1,1.92,2.71,2.89,2.08,5.04,0.69,0.49,0.78,-20,1,-18,0.84,7609,69,85,33,87,871,386.0,537,461,60,122.0,429,1,416,534,144,0,0,389,-3866,-3968,340,,,,,,,,,,,,
431743,1560690737696,2,1.92,2.72,2.88,2.08,5.06,0.73,0.56,0.82,-23,3,-21,0.92,7783,70,85,33,87,841,392.0,545,459,60,121.0,429,1,429,528,144,0,0,402,1,-3414,342,45.701954,4.911152,34.36,197.9,3,2.7567,0,0.0,0.4467,4,0.36,7.1957
431763,1560690737716,4,1.92,2.78,2.86,2.07,5.06,0.76,0.54,0.87,-25,2,-24,0.93,7928,70,85,33,85,812,398.0,556,463,60,121.0,429,1,435,533,144,0,0,406,6384,31796,343,,,,,,,,,,,,
431783,1560690737736,1,1.93,2.81,2.83,2.11,5.06,0.75,0.51,0.9,-26,2,-26,0.91,8123,70,85,33,84,784,402.0,565,457,60,122.0,429,1,436,527,144,0,0,419,11545,-21944,345,,,,,,,,,,,,
431803,1560690737756,3,1.96,2.81,2.8,2.14,5.08,0.74,0.54,0.92,-27,3,-28,0.92,8212,71,85,33,82,756,407.0,580,463,60,122.0,459,1,433,526,160,0,0,436,10392,2524,348,,,,,,,,,,,,
431823,1560690737776,1,2.0,2.82,2.76,2.13,5.05,0.72,0.62,0.92,-28,3,-28,0.95,8205,71,85,33,81,736,407.0,586,468,60,122.0,459,1,434,503,160,0,0,439,2524,-28332,351,,,,,,,,,,,,
431843,1560690737795,5,2.03,2.82,2.71,2.14,5.04,0.7,0.64,0.97,-29,2,-30,0.95,8249,71,85,33,80,736,420.0,585,462,60,122.0,459,1,433,494,160,0,0,439,-8165,6193,362,45.701946,4.911161,35.5,197.9,3,2.7567,0,0.0,0.4483,4,0.36,7.1974
431863,1560690737815,3,2.08,2.82,2.72,2.16,5.07,0.71,0.67,1.03,-29,3,-30,0.97,8393,71,85,33,80,738,424.0,591,453,60,121.0,459,1,429,504,160,0,0,453,-4082,23400,367,,,,,,,,,,,,
431883,1560690737835,5,2.12,2.82,2.73,2.17,5.04,0.6,0.8,0.99,-29,1,-31,1.0,8507,72,85,33,80,741,428.0,595,453,60,121.0,459,1,427,512,160,0,0,460,13180,31796,375,,,,,,,,,,,,
431903,1560690737855,4,2.16,2.81,2.75,2.17,5.04,0.54,0.67,1.0,-29,3,-33,0.86,8542,72,85,33,79,744,432.0,592,456,60,121.0,421,1,426,497,160,0,0,458,-3322,3571,389,,,,,,,,,,,,
431923,1560690737875,2,2.2,2.81,2.78,2.21,5.08,0.58,0.6,1.09,-28,2,-33,0.83,8557,73,85,33,78,746,433.0,602,465,60,122.0,421,1,425,497,160,0,0,468,243,3,396,,,,,,,,,,,,
431943,1560690737897,3,2.23,2.8,2.79,2.25,5.07,0.52,0.6,1.12,-27,2,-33,0.8,8753,74,85,33,79,753,436.0,605,462,60,122.0,421,1,421,497,160,0,0,462,21580,32033,401,45.701939,4.91117,38.25,197.9,3,2.7567,0,0.0,0.45,4,0.36,7.199
431963,1560690737917,4,2.25,2.79,2.79,2.25,5.07,0.37,0.74,1.12,-25,-0,-31,0.83,8932,74,85,33,79,775,440.0,610,456,60,122.0,421,1,417,483,160,0,0,473,20625,16648,409,,,,,,,,,,,,
431983,1560690737937,2,2.26,2.78,2.78,2.29,5.04,0.25,0.87,1.08,-23,2,-30,0.91,8949,75,85,33,78,795,443.0,608,466,60,122.0,421,1,416,483,160,0,0,471,-18341,2211,420,,,,,,,,,,,,
432003,1560690737957,1,2.27,2.78,2.78,2.34,5.07,0.07,0.98,0.99,-20,1,-26,0.99,8856,76,85,33,80,813,447.0,616,448,60,122.0,385,1,419,497,164,0,0,478,10305,505,429,,,,,,,,,,,,
432023,1560690737977,2,2.28,2.77,2.8,2.36,5.07,-0.07,0.98,0.86,-18,2,-24,0.99,8852,76,85,33,79,835,451.0,603,456,60,122.0,385,1,418,497,164,0,0,480,3571,-10483,438,,,,,,,,,,,,
432043,1560690737997,5,2.27,2.74,2.87,2.36,5.06,-0.13,0.93,0.8,-15,3,-22,0.93,8894,76,85,33,79,870,456.0,607,456,60,121.0,385,1,418,497,164,0,0,483,-9160,-1923,447,45.701939,4.91117,38.25,197.9,3,2.7567,0,0.0,0.45,4,0.36,7.2007
432063,1560690738005,1,2.29,2.69,2.95,2.36,5.05,-0.12,0.83,0.8,-13,4,-20,0.84,8979,77,85,33,79,906,461.0,601,458,60,121.0,385,1,416,497,164,0,0,493,2211,-9203,459,,,,,,,,,,,,
432083,1560690738025,-0,2.29,2.67,2.98,2.38,5.06,-0.21,0.86,0.81,-12,4,-18,0.89,9110,78,85,33,80,924,467.0,607,453,60,122.0,385,1,415,512,164,0,0,493,243,-1818,463,,,,,,,,,,,,
432103,1560690738045,2,2.29,2.67,2.99,2.37,5.04,-0.29,0.9,0.75,-10,3,-16,0.94,9254,79,85,33,80,941,472.0,601,460,60,122.0,380,1,416,512,178,0,0,496,-9203,-22519,471,,,,,,,,,,,,
432123,1560690738065,4,2.28,2.67,3.0,2.36,5.05,-0.31,0.83,0.78,-9,3,-16,0.88,9375,79,85,33,81,971,477.0,611,453,60,122.0,380,1,417,526,178,0,0,500,2212,10994,477,,,,,,,,,,,,
432143,1560690738097,1,2.28,2.71,3.01,2.42,5.05,-0.18,0.63,0.85,-8,4,-16,0.65,9532,80,85,33,80,1001,485.0,609,460,60,121.0,380,1,416,512,178,0,0,510,-6441,-3482,481,45.701927,4.911194,45.2,197.8,3,2.7567,0,0.0,0.4533,4,0.36,7.2024
432163,1560690738117,1,2.29,2.71,3.02,2.47,5.05,-0.22,0.62,0.78,-7,2,-14,0.66,9654,80,85,33,80,1014,486.0,611,452,60,120.0,380,1,410,514,178,0,0,516,-1562,-32248,486,,,,,,,,,,,,
432183,1560690738137,1,2.28,2.7,3.01,2.46,5.04,-0.07,0.41,0.9,-6,4,-12,0.42,9765,81,85,33,80,1027,491.0,610,461,60,121.0,380,1,407,517,178,0,0,520,771,1341,491,,,,,,,,,,,,
432203,1560690738157,4,2.28,2.69,3.0,2.45,5.04,-0.08,0.41,0.98,-6,3,-10,0.42,9821,81,85,33,80,1040,499.0,608,453,60,122.0,387,1,404,518,192,0,0,521,-22519,6274,499,,,,,,,,,,,,
432223,1560690738177,-0,2.28,2.68,2.96,2.44,5.04,0.0,0.28,1.02,-5,1,-9,0.28,9852,82,85,33,80,1052,507.0,621,464,60,121.0,387,1,402,518,192,0,0,525,-21872,-8186,507,,,,,,,,,,,,
432243,1560690738197,5,2.27,2.68,2.95,2.44,5.05,0.01,0.28,0.96,-4,1,-9,0.28,9946,82,85,33,80,1054,511.0,608,460,60,121.0,387,1,399,520,192,0,0,534,-3856,-30064,511,45.70192,4.911207,47.76,197.8,3,2.7567,0,0.0,0.455,4,0.36,7.2041
432263,1560690738217,4,2.28,2.67,3.05,2.45,5.04,-0.02,0.19,0.97,-3,0,-7,0.19,9978,82,85,33,80,1053,517.0,615,455,60,120.0,387,1,397,521,192,0,0,543,16383,1779,518,,,,,,,,,,,,
432283,1560690738237,4,2.28,2.65,3.13,2.44,5.06,0.03,0.08,1.01,-3,-0,-7,0.09,10206,82,85,33,80,1053,524.0,622,463,60,121.0,387,1,410,521,192,0,0,558,-9212,-32248,523,,,,,,,,,,,,
432303,1560690738257,1,2.29,2.64,3.1,2.45,5.04,0.15,0.07,1.06,-3,1,-6,0.17,10370,84,85,33,80,1053,527.0,624,461,60,121.0,383,1,419,521,202,0,0,548,6274,-28648,529,,,,,,,,,,,,
432323,1560690738277,3,2.29,2.63,3.09,2.44,5.04,0.12,0.13,1.0,-3,1,-5,0.18,10474,85,85,33,81,1053,534.0,627,454,60,122.0,383,1,428,529,202,0,0,550,2524,2524,534,,,,,,,,,,,,
432343,1560690738297,3,2.29,2.63,3.08,2.44,5.07,0.16,0.13,1.08,-2,0,-5,0.2,10605,86,85,33,81,1053,538.0,626,456,60,121.0,383,1,432,529,202,0,0,561,-30064,12552,537,45.701912,4.911221,50.59,197.8,3,2.7567,0,0.0,0.4567,4,0.36,7.2057
432363,1560690738317,2,2.3,2.64,3.05,2.44,5.05,0.07,0.15,1.05,-2,-0,-4,0.17,10617,86,85,33,81,1056,543.0,630,460,60,121.0,383,1,434,529,202,0,0,573,-3082,6273,543,,,,,,,,,,,,
432383,1560690738337,3,2.3,2.62,3.07,2.44,5.03,0.18,0.23,1.1,-2,-0,-4,0.29,10726,86,85,33,81,1059,548.0,633,461,60,121.0,383,1,435,529,202,0,0,577,2104,259,548,,,,,,,,,,,,
432403,1560690738357,6,2.31,2.63,3.05,2.44,5.04,0.26,0.2,1.08,-2,1,-5,0.33,10782,86,85,33,81,1061,557.0,626,460,60,121.0,388,1,437,529,216,0,0,576,6274,10432,555,,,,,,,,,,,,
432423,1560690738377,3,2.31,2.62,3.04,2.44,5.07,0.28,0.08,1.15,-1,-2,-4,0.29,10825,86,85,33,82,1064,559.0,633,455,60,120.0,388,1,438,537,216,0,0,580,-22359,208,559,,,,,,,,,,,,
432443,1560690738398,4,2.3,2.61,3.04,2.43,5.06,0.27,0.05,1.16,-0,-2,-3,0.28,10939,87,85,33,81,1066,563.0,637,456,60,121.0,388,1,441,529,216,0,0,589,-23623,-16384,563,45.701904,4.911236,52.94,197.8,3,2.7567,0,0.0,0.4583,4,0.36,7.2074
432463,1560690738418,4,2.31,2.61,3.05,2.43,5.08,0.29,0.08,1.1,-0,-3,-3,0.3,10964,87,85,33,81,1067,572.0,639,460,60,121.0,388,1,443,529,216,0,0,583,-30159,-13043,572,,,,,,,,,,,,
432483,1560690738438,3,2.3,2.59,3.09,2.42,5.04,0.3,0.01,1.11,1,-0,-2,0.3,11075,88,85,33,82,1067,576.0,635,462,60,121.0,388,1,443,537,216,0,0,597,259,6273,576,,,,,,,,,,,,
432503,1560690738458,6,2.31,2.58,3.13,2.41,5.07,0.26,0.06,0.96,1,1,-1,0.27,11254,89,85,33,82,1066,580.0,635,460,60,121.0,390,1,443,537,227,0,0,613,-16384,-7939,585,,,,,,,,,,,,
432523,1560690738478,4,2.3,2.59,3.13,2.42,5.05,0.36,-0.02,1.06,1,-0,-0,0.36,11419,89,85,33,82,1062,587.0,637,461,60,121.0,390,1,441,537,227,0,0,607,10432,17740,587,,,,,,,,,,,,
432543,1560690738497,2,2.31,2.6,3.13,2.41,5.05,0.38,-0.04,1.05,1,0,-1,0.38,11503,90,85,33,81,1057,587.0,637,453,60,121.0,390,1,440,529,227,0,0,617,-1894,-7939,587,45.701897,4.911252,55.43,197.8,3,2.7567,0,0.0,0.46,4,0.37,7.2091
432563,1560690738517,7,2.3,2.59,3.1,2.41,5.06,0.4,0.02,0.97,0,1,-1,0.4,11617,90,85,33,81,1053,592.0,643,459,60,121.0,390,1,440,539,227,0,0,615,2048,26688,592,,,,,,,,,,,,
432583,1560690738537,3,2.32,2.59,3.05,2.42,5.06,0.46,-0.01,0.84,0,1,1,0.46,11689,90,85,33,81,1050,599.0,641,457,60,121.0,390,1,440,532,227,0,0,627,4956,20993,604,,,,,,,,,,,,
432603,1560690738557,3,2.31,2.57,3.02,2.41,5.05,0.36,0.05,0.96,2,4,1,0.36,11740,91,85,33,81,1038,606.0,641,454,60,121.0,392,1,440,534,237,0,0,629,-7939,-2836,606,,,,,,,,,,,,
432623,1560690738577,3,2.32,2.56,3.02,2.44,5.06,0.28,0.05,0.91,3,4,1,0.28,11792,91,85,33,82,1016,614.0,643,454,60,121.0,392,1,440,535,237,0,0,630,-23055,-2836,614,,,,,,,,,,,,
432643,1560690738597,4,2.31,2.56,3.03,2.47,5.08,0.21,0.14,0.94,3,4,1,0.25,11867,91,85,33,81,996,617.0,641,452,60,120.0,392,1,440,537,237,0,0,639,1010,11776,617,45.701885,4.911268,57.71,197.8,3,2.7567,0,0.0,0.4617,4,0.37,7.2107
432663,1560690738617,4,2.3,2.56,3.04,2.49,5.05,0.14,0.21,0.96,4,4,1,0.26,11965,91,85,33,81,978,624.0,642,456,60,120.0,392,1,440,539,237,0,0,639,28675,11776,623,,,,,,,,,,,,
432683,1560690738637,5,2.31,2.55,3.06,2.47,5.06,0.07,0.25,0.99,5,5,2,0.26,12104,91,85,33,81,953,628.0,646,457,60,121.0,392,1,440,540,237,0,0,650,19320,-30207,628,,,,,,,,,,,,
432703,1560690738657,5,2.31,2.53,3.07,2.44,5.05,0.15,0.29,0.91,6,4,3,0.32,12214,91,85,33,81,920,635.0,651,453,60,121.0,392,1,440,540,249,0,0,659,-14655,479,635,,,,,,,,,,,,
432723,1560690738677,3,2.31,2.5,3.1,2.43,5.04,0.22,0.2,0.95,6,4,3,0.3,12319,92,85,33,82,891,640.0,650,450,60,120.0,392,1,440,550,249,0,0,661,771,31988,640,,,,,,,,,,,,
432743,1560690738697,6,2.3,2.51,3.12,2.43,5.08,0.31,0.04,0.97,5,5,2,0.31,12409,92,85,33,82,877,642.0,646,452,60,121.0,392,1,440,550,249,0,0,669,24,-3038,642,45.701878,4.911284,60.38,197.9,3,2.7567,0,0.0,0.4633,4,0.37,7.2124
432763,1560690738717,4,2.31,2.54,3.12,2.44,5.05,0.3,0.15,0.97,4,4,2,0.34,12491,92,85,33,82,862,649.0,644,458,60,120.0,392,1,440,551,249,0,0,671,11776,-2830,649,,,,,,,,,,,,
432783,1560690738737,3,2.3,2.6,3.05,2.44,5.04,0.22,0.23,0.85,3,5,3,0.32,12609,92,85,33,82,844,650.0,648,457,60,120.0,392,1,440,551,249,0,0,670,11776,-2830,650,,,,,,,,,,,,
432803,1560690738757,5,2.3,2.61,3.03,2.43,5.05,0.26,0.09,0.86,3,4,3,0.28,12617,92,85,33,82,830,653.0,656,460,60,121.0,407,1,440,551,264,0,0,666,-6006,-26562,653,,,,,,,,,,,,
432823,1560690738777,8,2.3,2.59,3.03,2.43,5.03,0.33,0.1,0.94,4,3,3,0.34,12626,92,85,33,82,827,658.0,652,461,60,121.0,407,1,440,551,264,0,0,679,24583,-2345,658,,,,,,,,,,,,
432843,1560690738796,1,2.3,2.6,3.05,2.46,5.07,0.27,0.11,0.9,4,3,3,0.29,12686,92,85,33,82,821,662.0,658,463,60,121.0,407,1,440,551,264,0,0,684,-26380,-3584,662,45.701866,4.911301,62.52,197.9,3,2.7567,0,0.0,0.465,4,0.37,7.214
432863,1560690738816,-0,2.29,2.59,3.16,2.48,5.05,0.3,0.04,0.97,3,1,2,0.31,12686,92,85,33,82,811,663.0,661,465,60,124.0,407,1,440,551,264,0,0,699,31988,12333,668,,,,,,,,,,,,
432883,1560690738836,-2,2.29,2.55,3.19,2.46,5.07,0.45,-0.01,0.99,2,0,1,0.45,12175,93,85,33,83,804,669.0,662,466,60,124.0,407,1,440,560,264,0,0,685,-27404,6208,672,,,,,,,,,,,,
432903,1560690738856,-1,2.29,2.53,3.21,2.44,5.06,0.49,-0.05,1.03,2,-1,2,0.49,11867,93,85,33,84,800,673.0,656,460,60,123.0,388,1,440,573,261,0,0,666,-3578,-10344,673,,,,,,,,,,,,
432923,1560690738876,-1,2.28,2.51,3.3,2.39,5.04,0.51,-0.13,1.12,2,-1,0,0.53,11653,93,85,33,85,800,673.0,656,462,60,123.0,388,1,440,584,261,0,0,669,1549,-10348,673,,,,,,,,,,,,
432943,1560690738896,-1,2.26,2.48,3.4,2.37,5.05,0.56,-0.15,0.98,2,-1,1,0.58,11425,94,85,33,85,819,672.0,652,465,60,121.0,388,1,441,582,261,0,0,667,-2830,-26380,672,45.701855,4.911319,65.01,197.9,3,2.7567,0,0.0,0.4667,4,0.37,7.2157
432963,1560690738916,4,2.26,2.46,3.41,2.35,5.07,0.31,-0.17,0.94,3,3,1,0.36,11200,94,85,33,86,837,676.0,648,462,60,123.0,388,1,443,601,261,0,0,670,-3038,-10346,676,,,,,,,,,,,,
432983,1560690738936,4,2.25,2.53,3.36,2.37,5.03,0.25,-0.04,0.82,2,6,1,0.26,10863,95,85,33,87,861,673.0,637,455,60,121.0,388,1,442,1052,261,0,0,700,31988,14342,670,,,,,,,,,,,,
433003,1560690738956,5,2.26,2.61,3.21,2.39,5.04,0.26,-0.12,0.85,2,5,1,0.28,10037,96,85,33,88,880,677.0,625,458,60,121.0,585,1,399,944,394,0,0,770,-2345,-3368,677,,,,,,,,,,,,
433023,1560690738976,4,2.25,2.68,3.09,2.44,5.06,0.21,-0.03,0.87,2,6,-1,0.22,10000,96,85,33,86,993,679.0,625,460,60,120.0,585,1,396,809,394,0,0,744,-2345,-3580,678,,,,,,,,,,,,
433043,1560690738996,2,2.26,2.69,3.04,2.44,5.05,0.25,-0.01,0.91,1,8,-1,0.25,10059,96,85,33,85,1106,685.0,625,456,60,121.0,585,1,396,682,394,0,0,721,-10399,-12152,685,45.701855,4.911319,65.01,197.9,3,2.7567,0,0.0,0.4667,4,0.37,7.2174
433063,1560690739010,6,2.26,2.65,3.03,2.42,5.05,0.32,-0.12,1.01,0,3,-1,0.35,9884,96,85,33,85,1198,697.0,620,455,60,121.0,585,1,401,581,394,0,0,737,6208,-2830,696,,,,,,,,,,,,
433083,1560690739030,3,2.28,2.65,3.01,2.41,5.05,0.27,-0.02,0.9,-0,6,-1,0.28,9780,96,85,33,85,1288,705.0,613,457,60,120.0,585,1,406,580,394,0,0,736,6658,-2314,700,,,,,,,,,,,,
433103,1560690739050,4,2.29,2.65,3.03,2.4,5.06,0.43,-0.21,0.95,0,5,-1,0.48,9806,96,86,33,85,1349,710.0,618,462,60,121.0,305,1,404,580,214,0,0,728,6658,-22796,706,,,,,,,,,,,,
433123,1560690739070,4,2.29,2.63,3.05,2.4,5.04,0.37,-0.12,0.99,1,4,-0,0.39,9925,96,86,33,85,1411,709.0,622,456,60,120.0,305,1,399,581,214,0,0,736,-12152,-2830,708,,,,,,,,,,,,
433143,1560690739096,3,2.28,2.61,3.05,2.39,5.07,0.37,-0.12,1.03,1,4,0,0.39,10080,97,86,33,85,1403,714.0,624,451,60,122.0,305,1,401,582,214,0,0,731,-31068,-22796,714,45.701836,4.911356,67.63,197.9,3,2.7567,0,0.0,0.47,4,0.38,7.219
433163,1560690739116,0,2.29,2.58,3.05,2.39,5.07,0.44,-0.2,1.05,1,5,-1,0.48,10195,97,86,33,85,1371,721.0,629,461,60,121.0,305,1,409,564,214,0,0,745,-31068,-2574,722,,,,,,,,,,,,
433183,1560690739136,5,2.28,2.6,3.05,2.42,5.04,0.45,-0.25,1.01,1,4,-1,0.51,10168,97,86,33,85,1294,726.0,627,457,60,122.0,305,1,407,582,214,0,0,753,-388,-3450,724,,,,,,,,,,,,
433203,1560690739156,4,2.28,2.66,3.03,2.46,5.07,0.4,-0.14,1.01,0,2,-1,0.43,10234,97,86,33,84,1209,724.0,633,463,60,121.0,310,1,410,564,225,0,0,752,-2918,-2574,725,,,,,,,,,,,,
433223,1560690739176,4,2.28,2.68,3.03,2.47,5.08,0.37,-0.07,1.05,0,2,-1,0.38,10257,97,86,33,85,1147,729.0,622,459,60,120.0,310,1,413,582,225,0,0,752,1524,13016,727,,,,,,,,,,,,
433243,1560690739197,3,2.28,2.71,3.06,2.46,5.06,0.4,-0.05,1.04,0,-0,-0,0.41,10370,97,86,33,85,1093,733.0,630,463,60,120.0,310,1,421,582,225,0,0,760,-22796,7413,732,45.701824,4.911375,70.02,197.9,3,2.7567,0,0.0,0.4717,4,0.38,7.2207
433263,1560690739217,5,2.27,2.72,3.19,2.44,5.04,0.39,-0.12,0.91,1,-1,-2,0.41,10399,97,86,33,85,1043,739.0,633,452,60,121.0,310,1,424,582,225,0,0,771,-13068,-10212,731,,,,,,,,,,,,
433283,1560690739237,5,2.27,2.7,3.31,2.44,5.04,0.45,-0.13,0.93,1,-1,-3,0.47,10498,97,86,33,85,996,744.0,631,462,60,121.0,310,1,430,582,225,0,0,792,-22796,-10214,743,,,,,,,,,,,,
433303,1560690739257,5,2.27,2.67,3.36,2.42,5.07,0.48,-0.09,0.89,0,-0,-3,0.49,10732,97,86,33,85,979,749.0,633,453,60,121.0,303,1,437,582,227,0,0,801,-23308,-2344,748,,,,,,,,,,,,
433323,1560690739277,1,2.28,2.64,3.3,2.37,5.06,0.49,-0.18,1.0,-0,-0,-3,0.52,10939,97,86,33,84,984,753.0,631,461,60,121.0,303,1,441,564,227,0,0,788,-3450,-3344,752,,,,,,,,,,,,
433343,1560690739296,4,2.27,2.6,3.17,2.33,5.04,0.39,-0.07,0.87,0,5,-2,0.4,10977,97,86,33,84,986,763.0,631,457,60,121.0,303,1,442,564,227,0,0,783,6389,-22796,758,45.701817,4.911394,72.38,197.9,3,2.7567,0,0.0,0.4733,4,0.38,7.2224
433363,1560690739316,3,2.27,2.6,3.04,2.34,5.04,0.38,0.05,0.91,1,5,-2,0.38,11068,97,86,33,84,985,765.0,645,457,60,121.0,303,1,443,564,227,0,0,805,-2344,-10216,766,,,,,,,,,,,,
433383,1560690739336,6,2.26,2.58,2.94,2.34,5.04,0.45,-0.11,1.01,1,4,-2,0.46,10958,97,86,33,84,983,771.0,638,457,60,120.0,303,1,441,564,227,0,0,800,7413,6389,768,,,,,,,,,,,,
433403,1560690739356,0,2.26,2.56,2.77,2.34,5.04,0.42,-0.17,1.09,0,6,-2,0.45,10769,97,86,33,84,977,777.0,632,458,60,120.0,300,1,436,564,232,0,0,798,-31068,-30694,777,,,,,,,,,,,,
433423,1560690739376,2,2.27,2.58,2.73,2.35,5.04,0.48,-0.11,1.18,-0,3,-1,0.5,10677,97,86,33,84,970,778.0,630,456,60,121.0,300,1,434,564,232,0,0,800,-2574,-3888,779,,,,,,,,,,,,
433443,1560690739398,4,2.26,2.64,2.76,2.39,5.03,0.48,-0.1,1.06,-1,3,-1,0.49,10659,97,86,33,84,962,780.0,632,454,60,121.0,300,1,434,564,232,0,0,805,-31066,-23490,779,45.701801,4.911414,73.58,197.9,3,2.7567,0,0.0,0.475,4,0.38,7.2241
433463,1560690739418,5,2.26,2.65,2.86,2.38,5.05,0.45,-0.0,1.03,-0,0,-1,0.45,10863,97,86,33,84,956,782.0,637,457,60,121.0,300,1,438,564,232,0,0,802,-2826,-13312,783,,,,,,,,,,,,
433483,1560690739438,1,2.27,2.67,3.07,2.38,5.05,0.51,-0.05,1.1,-1,-3,-3,0.51,11055,97,86,33,84,953,783.0,638,459,60,120.0,300,1,443,564,232,0,0,811,-2344,1524,778,,,,,,,,,,,,
433503,1560690739458,6,2.28,2.68,3.28,2.39,5.07,0.43,0.05,0.83,-1,-2,-1,0.43,11160,97,86,33,84,949,788.0,637,462,60,121.0,304,1,442,564,237,0,0,836,3544,-13580,786,,,,,,,,,,,,
433523,1560690739478,3,2.27,2.7,3.41,2.47,5.08,0.33,-0.05,0.94,-0,-4,-1,0.33,11349,97,86,33,84,945,787.0,643,461,60,121.0,304,1,441,564,237,0,0,840,-2344,-2311,790,,,,,,,,,,,,
433543,1560690739498,5,2.27,2.7,3.46,2.52,5.07,0.31,-0.04,0.88,-0,-5,-2,0.31,11645,97,86,33,83,941,790.0,646,459,60,121.0,304,1,440,549,237,0,0,859,11277,6790,790,45.70179,4.911435,76.81,197.9,3,2.7567,0,0.0,0.4767,4,0.38,7.2257
433563,1560690739518,5,2.28,2.71,3.43,2.52,5.05,0.36,0.03,0.76,-1,-7,-3,0.36,11852,97,86,33,83,941,794.0,647,466,60,120.0,304,1,440,555,237,0,0,863,5344,-2564,793,,,,,,,,,,,,
433583,1560690739538,2,2.28,2.7,3.36,2.5,5.07,0.37,0.06,0.69,-0,-7,-2,0.37,12011,97,86,33,83,936,799.0,643,461,60,121.0,304,1,440,560,237,0,0,867,204,-4874,799,,,,,,,,,,,,
433603,1560690739558,0,2.28,2.69,3.36,2.5,5.05,0.33,0.07,0.65,-0,-8,-2,0.33,12135,97,86,33,83,926,805.0,650,460,60,121.0,320,1,440,560,257,0,0,882,-13312,-1578,805,,,,,,,,,,,,
433623,1560690739578,3,2.27,2.69,3.31,2.5,5.04,0.35,0.06,0.62,-0,-7,-3,0.35,12167,89,86,33,82,915,808.0,651,462,60,121.0,320,1,440,550,257,0,0,911,-31068,136,810,,,,,,,,,,,,
433643,1560690739598,4,2.27,2.69,3.17,2.48,5.04,0.42,0.03,0.63,-0,-7,-1,0.42,12050,69,86,33,78,905,812.0,651,462,60,120.0,320,1,440,510,257,0,0,880,-25858,-31068,813,45.701778,4.911457,78.1,197.9,3,2.7567,0,0.0,0.4783,4,0.39,7.2274
433663,1560690739618,6,2.28,2.68,3.07,2.44,5.07,0.46,0.17,0.67,-1,-6,2,0.49,11726,50,86,33,69,891,822.0,651,461,60,121.0,320,1,440,461,257,0,0,855,-31066,-10508,822,,,,,,,,,,,,
433683,1560690739638,2,2.28,2.69,2.99,2.44,5.04,0.55,0.03,0.76,-1,-5,1,0.55,11167,32,86,33,59,865,830.0,642,460,60,121.0,320,1,433,381,257,0,0,854,-2356,-3335,825,,,,,,,,,,,,
433703,1560690739658,2,2.28,2.66,2.99,2.43,5.08,0.51,0.14,0.72,0,-5,0,0.53,10635,23,86,33,50,840,828.0,634,460,60,122.0,167,1,388,293,138,0,0,842,1037,-3450,825,,,,,,,,,,,,
433723,1560690739678,6,2.28,2.54,3.05,2.4,5.04,0.61,0.1,0.74,1,-8,1,0.62,10416,21,86,33,46,824,829.0,637,455,60,122.0,167,1,372,244,138,0,0,835,-31066,1037,829,,,,,,,,,,,,
433743,1560690739698,5,2.28,2.35,3.21,2.28,5.05,0.56,0.15,0.68,2,-6,1,0.57,10179,21,86,33,42,806,832.0,636,460,60,122.0,167,1,342,229,138,0,0,822,-3580,-3580,836,45.701763,4.911478,79.82,197.9,3,2.7567,0,0.0,0.48,4,0.39,7.2291
433763,1560690739718,6,2.27,2.25,3.44,2.16,5.05,0.62,0.08,0.53,1,-8,1,0.63,10048,18,86,33,40,784,835.0,635,463,60,122.0,167,1,327,221,138,0,0,815,-2830,-31066,832,,,,,,,,,,,,
433783,1560690739738,6,2.28,2.22,3.54,2.11,5.08,0.68,0.04,0.58,1,-8,-0,0.69,10064,15,86,32,38,763,829.0,626,462,60,122.0,167,1,317,216,138,0,0,775,-2830,5344,828,,,,,,,,,,,,
433803,1560690739758,9,2.27,2.2,3.49,2.04,5.06,0.68,0.03,0.59,1,-5,-1,0.68,10091,12,86,32,35,758,830.0,626,459,60,122.0,99,1,308,212,82,0,0,783,3462,-8148,826,,,,,,,,,,,,
433823,1560690739778,9,2.28,2.16,3.39,1.97,5.05,0.75,-0.09,0.45,1,-4,-0,0.75,10201,11,86,32,33,753,825.0,626,463,60,121.0,99,1,302,212,82,0,0,803,3462,-8148,825,,,,,,,,,,,,
433843,1560690739797,8,2.27,2.13,3.33,1.94,5.04,0.8,-0.14,0.41,2,-6,-2,0.81,10206,10,86,32,31,775,820.0,635,460,60,122.0,99,1,295,209,82,0,0,792,-2826,-12152,823,45.701752,4.911501,80.49,197.8,3,2.7567,0,0.0,0.4817,4,0.39,7.2307
433863,1560690739817,7,2.28,2.13,3.31,1.94,5.07,0.79,-0.06,0.31,2,-3,-2,0.79,10223,10,86,32,30,796,815.0,633,460,60,122.0,99,1,291,207,82,0,0,795,-25858,-7436,815,,,,,,,,,,,,
433883,1560690739837,6,2.28,2.13,3.32,1.94,5.04,0.89,0.04,0.39,2,-3,-1,0.89,10324,10,86,32,28,823,811.0,633,458,60,121.0,99,1,282,208,82,0,0,793,-2830,-30694,811,,,,,,,,,,,,
433903,1560690739857,7,2.28,2.1,3.31,1.91,5.07,0.89,0.1,0.49,2,-3,-2,0.9,10313,9,86,32,27,849,805.0,635,458,60,122.0,99,1,278,204,80,0,0,790,16118,-2540,806,,,,,,,,,,,,
433923,1560690739877,12,2.27,2.1,3.36,1.91,5.04,0.98,-0.02,0.56,1,-5,-4,0.98,10393,9,86,32,27,870,801.0,636,458,60,122.0,99,1,278,206,80,0,0,786,-13072,-23308,801,,,,,,,,,,,,
433943,1560690739897,12,2.27,2.08,3.39,1.9,5.05,0.99,-0.09,0.59,2,-3,-4,0.99,10393,9,86,32,26,890,799.0,636,465,60,121.0,99,1,274,204,80,0,0,772,-12152,-23308,797,45.701736,4.911523,78.92,197.8,3,2.7567,0,0.0,0.4833,4,0.39,7.2324
433963,1560690739917,11,2.28,2.07,3.42,1.9,5.08,1.06,-0.22,0.68,1,-2,-4,1.08,10445,9,86,32,25,891,798.0,645,462,60,121.0,99,1,270,205,80,0,0,761,-2540,13016,798,,,,,,,,,,,,
433983,1560690739937,12,2.27,2.07,3.4,1.9,5.04,1.01,-0.24,0.62,1,-1,-5,1.04,10387,8,86,32,25,885,793.0,638,456,60,121.0,99,1,270,203,80,0,0,760,-2540,6900,793,,,,,,,,,,,,
434003,1560690739957,12,2.27,2.07,3.39,1.9,5.08,1.08,-0.27,0.51,1,-0,-4,1.11,10387,8,86,32,25,866,790.0,637,461,60,121.0,101,1,270,203,80,0,0,763,-2344,-10216,790,,,,,,,,,,,,
434023,1560690739977,10,2.27,2.07,3.36,1.89,5.05,1.14,-0.28,0.43,1,-1,-2,1.17,10313,8,86,32,24,845,783.0,639,464,60,122.0,101,1,270,196,80,0,0,762,-2426,-2826,783,,,,,,,,,,,,
434043,1560690739992,13,2.26,2.07,3.36,1.9,5.04,1.22,-0.26,0.24,1,-0,-1,1.25,10341,8,86,32,24,829,777.0,640,463,60,121.0,101,1,270,196,80,0,0,752,-3368,-10218,776,45.701729,4.911544,76.81,197.8,3,2.7567,0,0.0,0.485,4,0.39,7.234
434063,1560690740012,15,2.27,2.05,3.36,1.89,5.05,1.17,-0.15,0.17,1,-1,1,1.18,10313,8,86,32,24,815,776.0,642,462,60,122.0,101,1,270,196,80,0,0,758,-10214,136,776,,,,,,,,,,,,
434083,1560690740032,14,2.28,2.04,3.37,1.88,5.04,1.12,-0.12,0.17,1,-0,2,1.13,10217,8,86,32,23,797,768.0,638,465,60,122.0,101,1,270,189,80,0,0,746,13016,-2830,766,,,,,,,,,,,,
434103,1560690740052,18,2.28,2.03,3.38,1.88,5.03,1.13,-0.15,0.21,1,2,2,1.14,10168,8,86,32,23,777,763.0,645,463,60,121.0,94,1,270,187,72,0,0,750,-10218,136,762,,,,,,,,,,,,
434123,1560690740072,15,2.29,2.0,3.4,1.86,5.05,1.06,-0.19,0.08,1,1,3,1.08,10005,7,86,32,23,768,760.0,638,460,60,121.0,94,1,270,184,72,0,0,733,8838,6790,758,,,,,,,,,,,,
434143,1560690740097,15,2.29,2.0,3.42,1.85,5.04,1.11,-0.17,0.12,1,2,4,1.12,9889,7,86,32,23,763,754.0,643,460,60,122.0,94,1,270,181,72,0,0,740,-3450,-3580,754,45.701717,4.911566,75.1,197.8,3,2.7567,0,0.0,0.4867,4,0.4,7.2357
434163,1560690740117,19,2.29,2.01,3.45,1.85,5.04,1.15,-0.15,0.14,2,3,3,1.16,9816,7,86,32,23,758,748.0,637,461,60,121.0,94,1,270,180,72,0,0,731,-2826,31988,748,,,,,,,,,,,,
434183,1560690740137,16,2.29,2.01,3.45,1.84,5.05,1.15,-0.22,0.1,2,1,2,1.17,9750,7,86,32,22,753,740.0,633,465,60,122.0,94,1,270,175,72,0,0,716,-2356,-3450,738,,,,,,,,,,,,
434203,1560690740157,20,2.28,2.03,3.45,1.87,5.03,1.1,-0.12,0.14,2,1,2,1.11,9635,7,86,32,22,751,732.0,633,461,60,124.0,86,1,270,173,64,0,0,702,-2358,204,729,,,,,,,,,,,,
434223,1560690740177,19,2.28,2.08,3.47,1.87,5.04,1.19,-0.15,0.04,1,-1,2,1.2,9566,7,86,32,22,752,719.0,630,465,60,124.0,86,1,270,171,64,0,0,701,-2560,-30694,715,,,,,,,,,,,,
434243,1560690740197,22,2.27,2.06,3.49,1.86,5.04,1.13,-0.24,0.09,1,-0,-0,1.15,9474,7,86,32,21,757,711.0,631,461,60,124.0,86,1,270,164,64,0,0,697,6658,-2345,710,45.701702,4.911586,72.89,197.7,3,2.7567,0,0.0,0.4883,4,0.4,7.2374
434263,1560690740217,20,2.28,2.04,3.51,1.85,5.06,0.93,-0.03,-0.03,1,1,0,0.93,9323,7,86,32,21,762,714.0,627,462,60,122.0,86,1,270,164,64,0,0,683,-3888,3543,709,,,,,,,,,,,,
434283,1560690740237,21,2.27,2.02,3.58,1.85,5.07,0.83,0.18,-0.13,1,1,2,0.85,9150,7,86,32,20,768,710.0,629,460,60,123.0,86,1,270,157,64,0,0,655,-12152,3543,707,,,,,,,,,,,,
434303,1560690740257,21,2.27,2.03,3.65,1.85,5.05,0.83,0.26,-0.27,0,0,2,0.87,8928,7,86,32,20,774,704.0,628,465,60,122.0,75,1,270,157,53,0,0,626,19188,-4876,700,,,,,,,,,,,,
434323,1560690740277,28,2.26,2.01,3.67,1.84,5.03,0.74,0.42,-0.23,1,2,1,0.85,8753,7,86,32,20,784,696.0,626,460,60,122.0,75,1,270,227,53,0,0,592,16599,-23055,696,,,,,,,,,,,,
434343,1560690740297,24,2.26,1.99,3.63,1.82,5.07,0.62,0.39,-0.27,1,3,1,0.73,8712,7,86,32,20,794,695.0,616,461,60,121.0,75,1,270,211,53,0,0,511,12333,-21872,695,45.701694,4.911606,70.44,197.7,3,2.7567,0,0.0,0.49,4,0.4,7.239
434363,1560690740317,23,2.27,2.0,3.59,1.84,5.04,0.76,0.31,-0.21,0,4,1,0.82,8761,7,86,32,19,803,689.0,620,458,60,121.0,75,1,270,187,53,0,0,478,24,30272,689,,,,,,,,,,,,
434383,1560690740337,23,2.27,1.99,3.55,1.83,5.06,0.88,0.16,-0.14,0,4,3,0.89,8585,7,86,32,19,809,684.0,617,460,60,122.0,75,1,270,173,53,0,0,455,16118,16648,682,,,,,,,,,,,,
434403,1560690740357,27,2.28,1.98,3.47,1.81,5.04,0.9,0.24,-0.21,0,5,3,0.93,8370,7,86,32,19,819,678.0,613,460,60,121.0,77,1,270,156,53,0,0,451,-2826,19477,679,,,,,,,,,,,,
434423,1560690740377,21,2.29,1.95,3.44,1.77,5.07,1.01,0.16,-0.15,1,4,2,1.03,8227,7,86,32,19,833,672.0,602,465,60,122.0,77,1,270,147,53,0,0,479,-388,8488,673,,,,,,,,,,,,
434443,1560690740397,25,2.29,1.93,3.47,1.74,5.04,1.1,0.23,-0.07,1,5,1,1.13,8166,7,86,32,19,845,667.0,599,462,60,122.0,77,1,270,146,53,0,0,447,-2826,-3267,667,45.701679,4.911624,67.31,197.7,3,2.7567,0,0.0,0.4917,4,0.4,7.2407
434463,1560690740417,20,2.3,1.9,3.54,1.71,5.07,1.16,0.17,-0.09,1,2,-0,1.17,8148,7,86,32,19,853,660.0,595,458,60,122.0,77,1,270,146,53,0,0,383,-10344,3635,657,,,,,,,,,,,,
434483,1560690740437,23,2.28,1.89,3.55,1.68,5.05,1.24,0.07,-0.06,1,5,0,1.24,7982,7,86,32,20,854,655.0,592,464,60,121.0,77,1,269,144,53,0,0,359,24583,-8985,654,,,,,,,,,,,,
434503,1560690740457,24,2.28,1.91,3.49,1.69,5.04,1.32,0.1,-0.01,1,3,-0,1.32,7828,7,86,32,19,846,645.0,586,465,60,123.0,66,1,268,146,43,0,0,378,-3584,505,643,,,,,,,,,,,,
434523,1560690740477,25,2.27,1.91,3.52,1.69,5.04,1.35,0.16,-0.15,2,4,-1,1.36,7646,6,86,32,20,836,636.0,577,458,60,123.0,66,1,266,146,43,0,0,384,-2580,1248,630,,,,,,,,,,,,
434543,1560690740497,22,2.27,1.9,3.56,1.68,5.07,1.2,0.22,-0.34,3,3,-1,1.22,7668,7,86,32,20,821,626.0,569,463,60,123.0,66,1,266,146,43,0,0,347,506,505,624,45.701672,4.911643,63.99,197.7,3,2.7567,0,0.0,0.4933,4,0.4,7.2424
434563,1560690740517,24,2.25,1.9,3.57,1.69,5.05,1.1,0.24,-0.43,3,7,-0,1.12,7653,7,86,32,20,807,623.0,570,458,60,123.0,66,1,266,146,43,0,0,303,30721,3571,617,,,,,,,,,,,,
434583,1560690740537,22,2.26,1.9,3.56,1.7,5.05,1.06,0.21,-0.43,2,4,0,1.08,7518,6,86,32,20,800,616.0,567,462,60,122.0,66,1,264,146,43,0,0,276,16529,-18108,612,,,,,,,,,,,,
434603,1560690740557,23,2.25,1.91,3.55,1.71,5.06,1.07,0.2,-0.51,2,4,-1,1.09,7318,6,86,33,20,794,606.0,560,461,60,122.0,65,1,263,146,40,0,0,262,-768,8488,606,,,,,,,,,,,,
434623,1560690740577,19,2.27,1.91,3.51,1.73,5.07,1.1,0.2,-0.5,2,2,-2,1.12,7156,6,86,33,20,802,598.0,548,462,60,123.0,65,1,261,146,40,0,0,271,23619,-3210,593,,,,,,,,,,,,
434643,1560690740597,22,2.26,1.89,3.51,1.72,5.04,1.19,0.17,-0.32,0,2,-2,1.21,6967,6,86,33,21,814,595.0,540,462,60,122.0,65,1,260,148,40,0,0,279,-16179,243,595,45.70166,4.91166,60.9,197.6,3,2.7567,0,0.0,0.495,4,0.41,7.2441
434663,1560690740617,19,2.26,1.86,3.51,1.7,5.04,1.14,0.16,-0.31,-0,2,-3,1.15,6820,6,86,33,21,837,596.0,526,461,60,122.0,65,1,260,147,40,0,0,277,-16179,10432,592,,,,,,,,,,,,
434683,1560690740637,20,2.27,1.87,3.47,1.7,5.05,1.14,0.07,-0.27,-0,2,-6,1.14,6658,6,86,33,21,862,590.0,519,462,60,123.0,65,1,260,149,40,0,0,279,-1894,2212,587,,,,,,,,,,,,
434703,1560690740657,23,2.27,1.87,3.46,1.7,5.04,1.18,0.14,-0.35,-0,2,-6,1.18,6521,6,86,33,22,878,580.0,507,463,60,123.0,63,1,261,148,37,0,0,312,30208,-32768,575,,,,,,,,,,,,
434723,1560690740677,19,2.27,1.86,3.47,1.68,5.04,1.25,0.07,-0.34,-1,-0,-5,1.25,6427,6,86,33,23,895,574.0,498,458,60,122.0,63,1,263,152,37,0,0,323,-8188,32033,569,,,,,,,,,,,,
434743,1560690740697,21,2.28,1.84,3.47,1.67,5.04,1.22,0.01,-0.28,-1,3,-5,1.22,6494,6,86,33,23,927,568.0,494,462,60,122.0,63,1,263,152,37,0,0,297,-8186,28696,565,45.701652,4.911676,57.67,197.6,3,2.7567,0,0.0,0.4967,4,0.41,7.2457
434763,1560690740717,21,2.28,1.84,3.47,1.67,5.07,1.13,0.03,-0.29,-1,1,-4,1.13,6494,6,86,33,24,957,563.0,498,462,60,123.0,63,1,264,155,37,0,0,276,2211,-18948,559,,,,,,,,,,,,
434783,1560690740737,17,2.29,1.84,3.47,1.66,5.07,1.18,0.05,-0.35,-1,5,-4,1.18,6386,6,86,33,24,974,557.0,492,463,60,123.0,63,1,265,155,37,0,0,285,-22263,19125,550,,,,,,,,,,,,
434803,1560690740757,17,2.3,1.84,3.48,1.67,5.04,1.26,-0.05,-0.37,-2,2,-4,1.26,6239,6,86,33,25,989,551.0,488,461,60,121.0,69,1,268,159,38,0,0,289,6274,-1562,545,,,,,,,,,,,,
434823,1560690740777,15,2.31,1.85,3.47,1.67,5.06,1.34,-0.14,-0.37,-2,0,-3,1.34,6159,6,86,33,25,984,543.0,480,460,60,121.0,69,1,269,159,38,0,0,306,1779,10392,537,,,,,,,,,,,,
434843,1560690740798,18,2.31,1.84,3.48,1.66,5.08,1.41,-0.13,-0.22,-3,-2,-3,1.41,6218,6,86,33,25,977,532.0,473,460,60,122.0,69,1,268,159,38,0,0,290,-22519,3,529,45.701641,4.911691,54.42,197.6,3,2.7567,0,0.0,0.4983,4,0.41,7.2474
434863,1560690740818,18,2.3,1.84,3.53,1.66,5.04,1.38,-0.13,-0.11,-3,-3,-3,1.39,6264,6,86,33,25,957,528.0,477,458,60,122.0,69,1,268,159,38,0,0,271,-28648,13,524,,,,,,,,,,,,
434883,1560690740838,17,2.3,1.86,3.52,1.66,5.06,1.3,-0.11,-0.13,-2,-3,-3,1.31,6179,6,86,33,26,936,527.0,480,463,60,123.0,69,1,272,160,38,0,0,259,6274,-24576,523,,,,,,,,,,,,
434903,1560690740858,19,2.29,1.9,3.47,1.69,5.04,1.23,-0.1,-0.14,-1,-1,-4,1.23,6050,6,86,33,26,884,518.0,475,462,60,123.0,71,1,272,160,37,0,0,283,1341,2560,513,,,,,,,,,,,,
434923,1560690740878,17,2.29,1.9,3.47,1.68,5.07,1.16,-0.05,-0.13,0,-2,-4,1.16,5911,6,86,33,26,830,509.0,467,463,60,123.0,71,1,271,160,37,0,0,311,10994,-18948,504,,,,,,,,,,,,
434943,1560690740896,19,2.29,1.88,3.47,1.67,5.04,1.13,0.05,-0.17,2,-3,-3,1.13,5817,6,86,33,27,792,502.0,453,459,60,122.0,71,1,273,161,37,0,0,336,15661,-26615,501,45.701633,4.911706,51.3,197.5,3,2.7567,0,0.0,0.5,4,0.41,7.2491
434963,1560690740916,14,2.28,1.88,3.48,1.62,5.04,1.22,0.1,-0.07,3,-7,-2,1.22,5850,6,86,33,27,759,498.0,450,461,60,121.0,71,1,273,161,37,0,0,320,2524,-1268,492,,,,,,,,,,,,
434983,1560690740936,14,2.29,1.88,3.51,1.61,5.04,1.3,0.1,-0.0,3,-8,-3,1.3,5954,6,86,33,28,739,494.0,452,463,60,122.0,71,1,277,162,37,0,0,314,998,30720,490,,,,,,,,,,,,
435003,1560690740956,11,2.3,1.88,3.52,1.61,5.04,1.37,0.05,0.01,2,-11,-3,1.37,5899,6,86,33,28,723,493.0,451,461,60,122.0,73,1,276,162,36,0,0,313,-1818,25600,486,,,,,,,,,,,,
435023,1560690740976,12,2.29,1.88,3.5,1.62,5.08,1.44,-0.02,0.04,0,-11,-3,1.44,5808,6,86,33,28,728,486.0,448,465,60,122.0,73,1,275,162,36,0,0,320,-1562,3327,479,,,,,,,,,,,,
435043,1560690740996,9,2.3,1.89,3.47,1.61,5.08,1.5,-0.06,0.0,-2,-11,-4,1.5,5817,6,86,33,29,744,475.0,445,461,60,121.0,73,1,278,163,36,0,0,328,-17956,8841,472,45.701633,4.911706,51.3,197.5,3,2.7567,0,0.0,0.5,4,0.41,7.2507
435063,1560690741010,7,2.3,1.89,3.46,1.62,5.04,1.52,-0.08,0.01,-4,-9,-4,1.52,5866,6,86,33,29,772,470.0,445,463,60,122.0,73,1,279,163,36,0,0,329,8488,32000,465,,,,,,,,,,,,
435083,1560690741030,2,2.31,1.89,3.45,1.62,5.05,1.48,-0.07,-0.04,-4,-6,-4,1.48,5969,6,86,33,29,805,466.0,451,461,60,122.0,73,1,280,164,36,0,0,330,-3210,95,461,,,,,,,,,,,,
435103,1560690741050,2,2.32,1.89,3.45,1.67,5.08,1.47,-0.1,-0.05,-4,-5,-5,1.48,6009,6,86,33,29,831,463.0,453,459,60,123.0,80,1,281,164,37,0,0,334,6193,-30976,459,,,,,,,,,,,,
435123,1560690741070,1,2.32,1.9,3.43,1.72,5.06,1.53,-0.14,-0.02,-4,-5,-4,1.54,6064,6,86,33,29,848,457.0,457,462,60,122.0,80,1,281,164,37,0,0,326,14488,-6640,457,,,,,,,,,,,,
435143,1560690741096,-1,2.32,1.93,3.4,1.74,5.08,1.58,-0.22,0.03,-5,-8,-3,1.59,6161,6,86,33,29,872,450.0,463,462,60,121.0,80,1,281,164,37,0,0,340,-3267,-6656,448,45.701618,4.911732,45.13,197.5,3,2.7567,0,0.0,0.5033,4,0.41,7.2524
435163,1560690741116,1,2.33,1.92,3.4,1.73,5.07,1.58,-0.22,0.08,-4,-9,-2,1.6,6283,6,86,33,28,900,445.0,472,460,60,121.0,80,1,277,163,37,0,0,401,-18341,-6656,445,,,,,,,,,,,,
435183,1560690741136,4,2.34,1.93,3.39,1.73,5.05,1.47,-0.12,0.1,-2,-10,-1,1.48,6355,6,86,33,28,919,441.0,480,460,60,122.0,80,1,276,163,37,0,0,419,21580,770,441,,,,,,,,,,,,
435203,1560690741156,-1,2.34,1.92,3.42,1.74,5.04,1.45,-0.1,0.06,-0,-9,-0,1.45,6492,6,86,33,28,930,439.0,487,462,60,123.0,88,1,276,163,39,0,0,411,-768,-9166,439,,,,,,,,,,,,
435223,1560690741176,1,2.34,1.93,3.48,1.76,5.04,1.51,-0.28,0.13,0,-10,-1,1.53,6613,6,86,33,28,930,438.0,498,466,60,122.0,88,1,275,161,39,0,0,395,3635,7154,438,,,,,,,,,,,,
435243,1560690741196,1,2.34,1.91,3.49,1.76,5.07,1.34,-0.17,0.08,2,-7,1,1.35,6718,6,86,33,27,915,435.0,505,458,60,123.0,88,1,270,161,39,0,0,396,13552,18584,435,45.701611,4.911744,42.98,197.5,3,2.7567,0,0.0,0.505,4,0.41,7.254
435263,1560690741216,4,2.34,1.92,3.5,1.8,5.04,1.41,-0.29,0.27,1,-7,1,1.44,6900,6,86,33,27,897,432.0,514,461,60,121.0,88,1,269,161,39,0,0,397,3826,13040,432,,,,,,,,,,,,
435283,1560690741236,3,2.34,1.95,3.49,1.84,5.07,1.26,-0.23,0.13,3,-7,2,1.28,7001,6,86,33,26,870,429.0,523,460,60,123.0,88,1,264,160,39,0,0,397,-8165,28696,429,,,,,,,,,,,,
435303,1560690741256,0,2.35,1.93,3.49,1.84,5.07,1.22,-0.17,0.11,4,-6,2,1.23,7145,6,86,33,26,849,427.0,534,463,60,122.0,100,1,265,160,43,0,0,401,18584,17144,426,,,,,,,,,,,,
435323,1560690741276,-2,2.35,1.92,3.48,1.85,5.06,1.3,-0.17,0.3,4,-8,3,1.31,7281,8,86,33,25,833,422.0,537,461,60,122.0,100,1,262,160,43,0,0,397,-9166,28696,422,,,,,,,,,,,,
435343,1560690741296,0,2.34,1.92,3.48,1.88,5.08,1.37,-0.24,0.35,4,-9,3,1.39,7381,8,86,33,25,821,421.0,546,462,60,122.0,100,1,263,159,43,0,0,394,9517,10541,421,45.701603,4.911756,41.37,197.5,3,2.7567,0,0.0,0.5067,4,0.42,7.2557
435363,1560690741316,-0,2.36,1.92,3.49,1.92,5.08,1.35,-0.25,0.48,4,-8,4,1.38,7497,9,86,33,24,830,418.0,553,463,60,122.0,100,1,264,159,43,0,0,391,2524,6384,417,,,,,,,,,,,,
435383,1560690741336,-1,2.35,1.94,3.47,1.94,5.04,1.4,-0.31,0.6,4,-8,5,1.44,7518,10,86,34,24,838,415.0,559,460,60,122.0,100,1,265,156,43,0,0,394,-8151,-32702,414,,,,,,,,,,,,
435403,1560690741356,-1,2.35,1.93,3.46,1.95,5.03,1.4,-0.3,0.68,4,-10,6,1.43,7575,10,86,34,24,845,410.0,565,463,60,122.0,106,1,265,156,44,0,0,398,6512,28696,410,,,,,,,,,,,,
435423,1560690741376,-0,2.34,1.94,3.48,1.97,5.04,1.46,-0.36,0.73,3,-10,6,1.51,7533,11,86,34,24,850,408.0,568,461,60,121.0,106,1,265,156,44,0,0,395,28696,28696,408,,,,,,,,,,,,
435443,1560690741396,1,2.32,1.94,3.45,1.98,5.04,1.49,-0.36,0.83,2,-8,6,1.53,7494,11,86,34,24,849,408.0,570,465,60,123.0,106,1,264,156,44,0,0,396,-3968,6384,408,45.701599,4.911767,39.67,197.5,3,2.7567,0,0.0,0.5083,4,0.42,7.2574
435463,1560690741416,0,2.31,1.94,3.4,1.98,5.04,1.5,-0.43,0.94,2,-9,6,1.56,7408,11,86,34,25,849,407.0,564,460,60,121.0,106,1,264,159,44,0,0,397,-32702,-8151,407,,,,,,,,,,,,
435483,1560690741436,-0,2.31,1.96,3.4,1.98,5.05,1.53,-0.32,0.92,2,-12,5,1.56,7370,11,86,34,25,850,405.0,566,463,60,121.0,106,1,263,159,44,0,0,395,-3968,17144,406,,,,,,,,,,,,
435503,1560690741456,5,2.28,1.97,3.39,1.98,5.04,1.47,-0.39,0.83,1,-11,5,1.52,7312,11,86,34,25,852,404.0,562,464,60,121.0,109,1,263,159,44,0,0,392,17144,-3968,400,,,,,,,,,,,,
435523,1560690741476,3,2.28,1.97,3.4,1.96,5.06,1.31,-0.39,0.75,2,-8,5,1.37,7284,11,86,34,25,855,401.0,554,461,60,122.0,109,1,262,159,44,0,0,391,17144,-6656,401,,,,,,,,,,,,
435543,1560690741496,3,2.27,1.97,3.39,1.97,5.06,1.23,-0.35,0.71,3,-8,5,1.28,7273,11,86,34,25,858,399.0,552,460,60,123.0,109,1,262,159,44,0,0,390,17144,-1562,399,45.701592,4.911777,38.86,197.5,3,2.7567,0,0.0,0.51,4,0.42,7.259
435563,1560690741516,1,2.28,1.98,3.38,1.96,5.04,1.19,-0.35,0.53,3,-5,4,1.24,7222,12,86,34,26,866,397.0,553,460,60,123.0,109,1,266,159,44,0,0,389,-1818,240,397,,,,,,,,,,,,
435583,1560690741536,0,2.27,1.98,3.37,1.96,5.04,1.09,-0.23,0.42,3,-6,4,1.12,7225,12,86,34,26,874,395.0,553,465,60,122.0,109,1,266,160,44,0,0,387,-6656,-6524,395,,,,,,,,,,,,
435603,1560690741556,5,2.28,2.02,3.34,1.97,5.05,1.18,-0.23,0.54,1,-7,3,1.21,7189,12,86,34,26,880,394.0,551,462,60,122.0,109,1,265,160,43,0,0,387,505,240,394,,,,,,,,,,,,
435623,1560690741576,4,2.29,2.02,3.33,1.98,5.05,1.27,-0.3,0.65,1,-6,3,1.3,7208,12,86,34,26,885,390.0,550,461,60,121.0,109,1,266,160,43,0,0,387,-6524,-6475,390,,,,,,,,,,,,
435643,1560690741597,2,2.3,2.01,3.35,1.97,5.08,1.26,-0.32,0.62,2,-6,3,1.3,7214,12,86,34,27,890,389.0,546,458,60,123.0,109,1,270,160,43,0,0,381,240,-992,389,45.701584,4.911787,37.95,197.5,3,2.7567,0,0.0,0.5117,4,0.42,7.2607
435663,1560690741617,-2,2.31,2.02,3.35,1.98,5.08,1.1,-0.23,0.42,2,-2,4,1.12,7159,12,86,34,27,896,388.0,549,461,60,123.0,109,1,269,161,43,0,0,382,-6475,8200,388,,,,,,,,,,,,
435683,1560690741637,0,2.31,2.03,3.35,1.98,5.06,0.98,-0.12,0.37,1,-5,5,0.99,7167,12,86,34,27,897,387.0,547,465,60,121.0,109,1,269,161,43,0,0,384,-6475,-19126,387,,,,,,,,,,,,
435703,1560690741657,6,2.32,2.02,3.35,1.97,5.08,1.08,-0.18,0.53,0,-4,6,1.1,7086,12,86,34,27,898,385.0,545,460,60,122.0,110,1,268,161,43,0,0,379,-19019,19125,385,,,,,,,,,,,,
435723,1560690741677,2,2.33,2.02,3.34,1.99,5.07,1.05,-0.24,0.5,2,-3,6,1.07,7064,12,86,34,28,899,384.0,542,457,60,122.0,110,1,272,161,43,0,0,380,-19126,-19126,384,,,,,,,,,,,,
435743,1560690741696,-0,2.34,2.01,3.34,2.0,5.04,0.93,-0.17,0.44,2,-2,5,0.95,7054,12,86,34,28,901,385.0,537,460,60,123.0,110,1,272,163,43,0,0,373,-992,19125,385,45.701576,4.911797,37.5,197.5,3,2.7567,0,0.0,0.5133,4,0.42,7.2624
435763,1560690741716,4,2.35,2.0,3.37,2.0,5.08,0.86,-0.19,0.49,2,-3,5,0.88,7017,12,86,34,28,902,384.0,539,462,60,122.0,110,1,272,163,43,0,0,374,-6656,8200,384,,,,,,,,,,,,
435783,1560690741736,2,2.36,2.0,3.37,2.01,5.08,0.98,-0.29,0.48,2,-4,7,1.02,6988,12,86,34,28,903,384.0,540,465,60,122.0,110,1,272,163,43,0,0,373,-6656,742,384,,,,,,,,,,,,
435803,1560690741756,0,2.37,2.0,3.38,2.02,5.04,0.73,-0.23,0.32,4,0,8,0.77,7009,12,86,34,28,904,383.0,535,460,60,123.0,111,1,272,163,43,0,0,372,742,3,383,,,,,,,,,,,,
435823,1560690741776,4,2.38,2.0,3.39,2.02,5.07,0.86,-0.24,0.49,3,-4,8,0.89,6949,12,86,34,28,905,383.0,535,465,60,121.0,111,1,273,163,43,0,0,369,1,2278,383,,,,,,,,,,,,
435843,1560690741795,2,2.38,2.01,3.4,2.04,5.06,0.88,-0.35,0.44,5,-1,10,0.95,6926,12,86,34,29,906,383.0,533,460,60,122.0,111,1,277,164,43,0,0,367,257,-6656,383,45.701572,4.911807,36.98,197.5,3,2.7567,0,0.0,0.515,4,0.42,7.264
435863,1560690741815,-1,2.39,2.01,3.4,2.11,5.09,0.76,-0.25,0.39,5,-1,10,0.8,6944,12,86,34,29,906,381.0,532,460,60,123.0,111,1,277,164,43,0,0,368,0,-6656,382,,,,,,,,,,,,
435883,1560690741835,4,2.39,2.01,3.44,2.11,5.06,0.83,-0.39,0.52,6,-5,10,0.92,6898,12,86,34,29,908,380.0,529,458,60,121.0,111,1,278,164,43,0,0,365,230,8200,380,,,,,,,,,,,,
435903,1560690741855,1,2.4,2.0,3.46,2.1,5.06,0.83,-0.37,0.4,7,-1,12,0.91,6868,12,86,34,29,909,380.0,529,460,60,123.0,110,1,278,164,42,0,0,360,-6405,-6656,380,,,,,,,,,,,,
435923,1560690741875,4,2.39,2.0,3.46,2.1,5.07,0.77,-0.38,0.4,7,-3,13,0.86,6880,12,86,34,30,911,379.0,529,461,60,122.0,110,1,282,166,42,0,0,360,-1268,-6656,379,,,,,,,,,,,,
435943,1560690741897,-1,2.4,2.0,3.46,2.09,5.06,0.89,-0.45,0.4,7,-1,15,1.0,6845,13,86,34,30,912,378.0,526,464,60,122.0,110,1,282,166,42,0,0,360,-1268,257,378,45.701565,4.911816,36.38,197.5,3,2.7567,0,0.0,0.5167,4,0.42,7.2657
435963,1560690741917,3,2.4,2.01,3.45,2.07,5.05,0.78,-0.34,0.34,8,-1,15,0.85,6810,13,86,34,30,913,378.0,524,457,60,123.0,110,1,282,166,42,0,0,360,-6458,486,378,,,,,,,,,,,,
435983,1560690741937,1,2.38,2.01,3.42,2.07,5.05,0.89,-0.39,0.42,8,-2,15,0.97,6793,13,86,34,31,914,377.0,518,459,60,123.0,110,1,286,167,42,0,0,360,-14707,742,377,,,,,,,,,,,,
436003,1560690741957,-5,2.38,2.01,3.44,2.08,5.05,0.75,-0.28,0.34,9,-2,14,0.8,6805,13,86,34,31,915,374.0,523,458,60,123.0,114,1,286,167,43,0,0,355,-29302,486,374,,,,,,,,,,,,
436023,1560690741977,-0,2.38,2.01,3.5,2.08,5.07,0.88,-0.41,0.42,9,-3,14,0.97,6778,13,86,34,31,916,374.0,522,461,60,121.0,114,1,286,167,43,0,0,354,-29978,1,374,,,,,,,,,,,,
436043,1560690741997,0,2.38,2.03,3.47,2.09,5.04,0.71,-0.3,0.28,10,0,15,0.77,6766,13,86,34,31,915,372.0,525,461,60,123.0,114,1,286,167,43,0,0,357,-29978,0,372,45.701565,4.911816,36.38,197.5,3,2.7567,0,0.0,0.5167,4,0.42,7.2674
436063,1560690742009,3,2.37,2.05,3.46,2.09,5.04,0.84,-0.4,0.35,9,-3,15,0.93,6761,13,86,34,32,915,372.0,521,463,60,121.0,114,1,290,169,43,0,0,352,4104,0,370,,,,,,,,,,,,
436083,1560690742029,0,2.38,2.06,3.46,2.11,5.08,0.68,-0.34,0.29,10,-1,15,0.76,6734,13,86,34,32,913,370.0,521,458,60,123.0,114,1,290,169,43,0,0,356,-6640,486,369,,,,,,,,,,,,
436103,1560690742049,0,2.38,2.06,3.44,2.12,5.07,0.81,-0.43,0.36,9,-2,16,0.92,6730,13,86,34,32,913,368.0,518,463,60,122.0,116,1,290,169,43,0,0,354,-6644,-1268,368,,,,,,,,,,,,
436123,1560690742069,5,2.37,2.05,3.4,2.1,5.07,0.71,-0.33,0.35,10,-1,16,0.78,6679,10,86,34,31,911,366.0,517,457,60,122.0,116,1,286,167,43,0,0,352,-6644,3082,366,,,,,,,,,,,,
436143,1560690742097,-1,2.38,2.04,3.41,2.09,5.05,0.8,-0.39,0.38,9,-2,16,0.89,6651,9,86,34,31,908,366.0,514,463,60,122.0,116,1,286,167,43,0,0,353,-6644,-6458,366,45.701553,4.911833,35.29,197.5,3,2.7567,0,0.0,0.52,4,0.42,7.2691
436163,1560690742117,2,2.38,2.04,3.42,2.08,5.06,0.73,-0.32,0.4,9,-2,16,0.8,6623,9,86,34,30,905,367.0,508,462,60,123.0,116,1,282,166,43,0,0,350,3183,-1268,368,,,,,,,,,,,,
436183,1560690742137,-1,2.38,2.04,3.4,2.1,5.04,0.79,-0.29,0.35,10,-2,16,0.84,6574,9,86,34,30,902,365.0,508,461,60,123.0,116,1,282,166,43,0,0,347,28553,-14707,367,,,,,,,,,,,,
436203,1560690742157,2,2.37,2.04,3.4,2.08,5.05,0.86,-0.38,0.41,9,-4,15,0.94,6553,9,86,34,29,900,364.0,508,460,60,121.0,112,1,279,166,41,0,0,348,-30454,-6640,364,,,,,,,,,,,,
436223,1560690742177,4,2.36,2.02,3.42,2.09,5.07,0.73,-0.31,0.35,10,-2,16,0.79,6519,9,86,34,29,895,362.0,508,465,60,122.0,112,1,279,164,41,0,0,347,2811,4104,362,,,,,,,,,,,,
436243,1560690742197,-0,2.36,2.04,3.43,2.09,5.04,0.82,-0.31,0.34,10,-1,16,0.88,6508,9,86,34,29,890,361.0,501,460,60,123.0,112,1,279,164,41,0,0,343,8841,3302,361,45.701546,4.911841,34.72,197.5,3,2.7567,0,0.0,0.5217,4,0.43,7.2707
436263,1560690742217,3,2.36,2.06,3.47,2.11,5.04,0.85,-0.34,0.42,9,-3,15,0.92,6524,9,86,34,30,888,361.0,499,461,60,122.0,112,1,282,166,41,0,0,341,-30438,3183,360,,,,,,,,,,,,
436283,1560690742237,2,2.37,2.06,3.49,2.11,5.06,0.75,-0.26,0.44,10,-2,15,0.8,6490,10,86,34,30,884,358.0,499,462,60,123.0,112,1,283,166,41,0,0,342,8841,2811,358,,,,,,,,,,,,
436303,1560690742257,-1,2.36,2.06,3.44,2.08,5.06,0.85,-0.27,0.45,10,-3,14,0.89,6492,10,86,34,30,880,358.0,496,465,60,123.0,111,1,283,166,40,0,0,343,-10554,28553,358,,,,,,,,,,,,
436323,1560690742277,1,2.37,2.06,3.41,2.08,5.07,0.87,-0.3,0.52,9,-3,13,0.92,6467,10,86,34,30,876,356.0,500,465,60,122.0,111,1,283,166,40,0,0,341,6870,2811,356,,,,,,,,,,,,
436343,1560690742297,2,2.38,2.05,3.41,2.08,5.06,0.84,-0.26,0.53,10,-3,11,0.88,6425,10,86,34,30,874,354.0,498,458,60,121.0,111,1,283,166,40,0,0,341,-31206,8841,354,45.701538,4.911849,34.17,197.5,3,2.7567,0,0.0,0.5233,4,0.43,7.2724
436363,1560690742317,0,2.36,2.05,3.41,2.07,5.06,0.87,-0.23,0.47,10,-2,10,0.9,6452,11,86,34,31,872,352.0,498,459,60,123.0,111,1,286,167,40,0,0,339,-14714,8841,352,,,,,,,,,,,,
436383,1560690742337,-2,2.37,2.04,3.41,2.07,5.07,0.9,-0.31,0.52,9,-3,9,0.95,6403,12,86,34,31,873,352.0,497,466,60,122.0,111,1,286,167,40,0,0,338,6668,2811,352,,,,,,,,,,,,
436403,1560690742357,1,2.37,2.05,3.4,2.07,5.04,0.87,-0.33,0.53,9,-3,8,0.93,6416,13,86,34,32,874,351.0,498,465,60,122.0,113,1,290,169,40,0,0,337,-31222,-30438,351,,,,,,,,,,,,
436423,1560690742377,4,2.37,2.05,3.43,2.08,5.08,0.76,-0.24,0.49,10,-4,8,0.8,6397,13,86,34,32,876,349.0,495,457,60,124.0,113,1,290,169,40,0,0,333,-31222,-30438,349,,,,,,,,,,,,
436443,1560690742398,-2,2.38,2.06,3.46,2.09,5.06,0.8,-0.23,0.39,10,-2,9,0.83,6384,13,86,34,33,878,349.0,493,458,60,123.0,113,1,292,174,40,0,0,334,2560,6668,349,45.701534,4.911856,33.42,197.5,3,2.7567,0,0.0,0.525,4,0.43,7.274
436463,1560690742418,-2,2.38,2.07,3.44,2.09,5.06,0.88,-0.32,0.43,9,-3,9,0.94,6325,13,86,34,34,883,349.0,495,463,60,122.0,113,1,295,179,40,0,0,334,13,-10554,349,,,,,,,,,,,,
436483,1560690742438,2,2.37,2.08,3.42,2.09,5.05,0.87,-0.29,0.47,9,-5,9,0.92,6287,14,86,34,34,888,348.0,494,466,60,121.0,113,1,295,179,40,0,0,334,3346,-14714,348,,,,,,,,,,,,
436503,1560690742458,2,2.37,2.07,3.41,2.08,5.04,0.78,-0.29,0.53,10,-4,7,0.83,6304,14,86,34,35,889,347.0,488,461,60,123.0,121,1,298,185,42,0,0,331,-6528,-30438,347,,,,,,,,,,,,
436523,1560690742478,4,2.37,2.06,3.42,2.08,5.08,0.71,-0.2,0.54,10,-1,7,0.74,6281,14,86,34,35,890,345.0,487,463,60,123.0,121,1,298,185,42,0,0,329,-6528,-31206,345,,,,,,,,,,,,
436543,1560690742497,-0,2.36,2.06,3.4,2.07,5.08,0.77,-0.2,0.51,10,-1,6,0.79,6298,14,86,34,36,893,344.0,484,462,60,122.0,121,1,301,190,42,0,0,331,-32559,6870,344,45.701527,4.911862,33.08,197.5,3,2.7567,0,0.0,0.5267,4,0.43,7.2757
436563,1560690742517,1,2.36,2.05,3.4,2.06,5.04,0.88,-0.32,0.59,9,-1,6,0.94,6294,14,86,34,36,897,344.0,485,462,60,121.0,121,1,301,190,42,0,0,330,-32559,-122,344,,,,,,,,,,,,
436583,1560690742537,1,2.35,2.05,3.39,2.05,5.07,0.99,-0.33,0.67,8,-4,5,1.04,6300,15,86,34,37,898,342.0,486,461,60,122.0,121,1,304,196,42,0,0,329,-12032,6668,342,,,,,,,,,,,,
436603,1560690742557,3,2.34,2.05,3.39,2.06,5.03,0.96,-0.3,0.65,9,-6,6,1.0,6277,16,86,34,37,897,343.0,485,458,60,122.0,134,1,304,196,46,0,0,329,-12032,-31222,341,,,,,,,,,,,,
436623,1560690742577,4,2.34,2.05,3.38,2.05,5.07,0.89,-0.27,0.68,9,-5,7,0.93,6281,18,86,34,39,896,342.0,483,462,60,123.0,134,1,310,202,46,0,0,328,-12032,-31222,342,,,,,,,,,,,,
436643,1560690742595,23,2.34,2.06,3.39,2.06,5.07,0.82,-0.21,0.58,10,-4,8,0.85,6270,19,86,34,40,896,342.0,480,463,60,123.0,134,1,316,209,46,0,0,331,-12032,-31222,342,45.701519,4.911869,32.68,197.6,3,2.7567,0,0.0,0.5283,4,0.43,7.2774
436663,1560690742615,-2,2.34,2.07,3.38,2.07,5.06,0.82,-0.22,0.54,9,-2,8,0.85,6277,20,86,34,41,895,340.0,479,463,60,123.0,134,1,323,210,46,0,0,331,-12032,-122,340,,,,,,,,,,,,
436683,1560690742635,1,2.33,2.08,3.39,2.06,5.05,0.89,-0.29,0.56,8,-1,8,0.93,6315,21,86,34,42,893,342.0,485,463,60,121.0,134,1,329,212,46,0,0,329,175,13,342,,,,,,,,,,,,
436703,1560690742655,2,2.33,2.09,3.39,2.06,5.04,0.89,-0.3,0.62,8,-1,7,0.94,6343,22,86,34,44,889,339.0,487,453,60,123.0,150,1,343,214,51,0,0,329,-12032,-31222,339,,,,,,,,,,,,
436723,1560690742675,5,2.34,2.1,3.37,2.06,5.07,0.85,-0.21,0.6,9,-0,7,0.87,6386,22,86,34,45,885,339.0,489,461,60,123.0,150,1,349,216,51,0,0,329,-12032,-122,339,,,,,,,,,,,,
436743,1560690742697,-0,2.34,2.12,3.37,2.07,5.06,0.87,-0.22,0.53,8,-0,6,0.9,6408,23,86,34,46,884,337.0,492,464,60,122.0,150,1,357,218,51,0,0,330,175,4838,337,45.701511,4.911876,32.36,197.6,3,2.7567,0,0.0,0.53,4,0.43,7.279
436763,1560690742717,2,2.34,2.12,3.36,2.09,5.04,0.89,-0.28,0.57,8,-1,6,0.93,6476,23,86,34,47,882,337.0,494,466,60,122.0,150,1,364,220,51,0,0,328,170,-12032,336,,,,,,,,,,,,
436783,1560690742737,5,2.34,2.13,3.37,2.07,5.06,0.81,-0.2,0.61,8,-2,5,0.84,6499,23,86,34,48,877,335.0,495,458,60,123.0,150,1,367,225,51,0,0,326,170,2560,335,,,,,,,,,,,,
436803,1560690742757,-1,2.34,2.14,3.37,2.05,5.05,0.87,-0.26,0.57,8,-2,5,0.9,6503,23,86,34,48,873,335.0,498,454,60,123.0,164,1,368,225,55,0,0,326,-22016,-6528,334,,,,,,,,,,,,
436823,1560690742777,3,2.33,2.14,3.38,2.05,5.08,0.88,-0.25,0.58,7,-4,5,0.91,6537,24,86,34,49,871,334.0,502,465,60,121.0,164,1,371,230,55,0,0,327,-22016,4838,334,,,,,,,,,,,,
436843,1560690742792,0,2.33,2.14,3.38,2.04,5.05,0.8,-0.16,0.55,7,-2,6,0.82,6551,24,86,34,49,870,334.0,505,463,60,123.0,164,1,371,230,55,0,0,328,170,-32559,334,45.701504,4.911881,32.54,197.6,3,2.7567,0,0.0,0.5317,4,0.43,7.2807
436863,1560690742812,-1,2.33,2.14,3.36,2.08,5.07,0.88,-0.2,0.54,7,-2,7,0.9,6588,24,86,34,50,874,335.0,504,460,60,122.0,164,1,374,236,55,0,0,325,-22016,-12032,332,,,,,,,,,,,,
436883,1560690742832,5,2.32,2.14,3.35,2.08,5.08,0.84,-0.15,0.63,7,-3,7,0.85,6592,24,86,34,51,884,333.0,505,461,60,121.0,164,1,377,241,55,0,0,328,165,4838,333,,,,,,,,,,,,
436903,1560690742852,-1,2.31,2.14,3.34,2.07,5.06,0.79,-0.12,0.61,7,-2,7,0.8,6578,24,86,34,51,896,334.0,501,465,60,123.0,177,1,377,241,59,0,0,334,-22016,6668,334,,,,,,,,,,,,
436923,1560690742872,1,2.31,2.14,3.34,2.07,5.06,0.82,-0.18,0.71,6,-3,5,0.84,6445,24,86,34,51,908,336.0,494,461,60,121.0,177,1,376,241,59,0,0,337,-20736,-31206,336,,,,,,,,,,,,
436943,1560690742896,3,2.3,2.16,3.33,2.14,5.08,0.81,-0.15,0.75,6,-4,3,0.82,6343,25,86,34,52,933,338.0,489,456,60,123.0,177,1,379,246,59,0,0,344,-32559,-122,338,45.7015,4.911887,32.43,197.6,3,2.7567,0,0.0,0.5333,4,0.43,7.2824
436963,1560690742916,4,2.29,2.19,3.29,2.17,5.08,0.76,-0.08,0.76,6,-5,2,0.76,6254,25,86,34,53,971,339.0,484,457,60,124.0,177,1,381,252,59,0,0,341,4838,-10554,340,,,,,,,,,,,,
436983,1560690742936,6,2.29,2.21,3.26,2.16,5.04,0.66,0.05,0.72,6,-4,1,0.66,6186,25,86,34,54,1006,340.0,477,461,60,123.0,177,1,385,252,59,0,0,340,13,6668,340,,,,,,,,,,,,
437003,1560690742956,0,2.29,2.2,3.24,2.13,5.08,0.66,0.1,0.64,6,-3,1,0.67,6204,25,86,34,54,1033,341.0,475,465,60,123.0,176,1,385,258,60,0,0,341,2560,3327,341,,,,,,,,,,,,
437023,1560690742976,-0,2.27,2.2,3.26,2.11,5.05,0.73,0.09,0.64,5,-2,1,0.73,6252,25,86,34,54,1066,341.0,472,470,60,123.0,176,1,385,258,60,0,0,339,-31222,6668,341,,,,,,,,,,,,
437043,1560690742996,1,2.28,2.2,3.31,2.13,5.07,0.74,-0.02,0.68,5,-3,1,0.74,6379,25,86,34,55,1103,341.0,480,473,60,122.0,176,1,387,259,60,0,0,338,-122,13,341,45.7015,4.911887,32.43,197.6,3,2.7567,0,0.0,0.5333,4,0.43,7.284
437063,1560690743010,4,2.27,2.21,3.31,2.14,5.05,0.76,-0.02,0.71,4,-2,1,0.76,6392,25,86,34,55,1133,340.0,487,456,60,123.0,176,1,387,259,60,0,0,342,-122,-122,339,,,,,,,,,,,,
437083,1560690743030,0,2.25,2.2,3.26,2.11,5.04,0.71,0.07,0.61,4,-1,2,0.72,6452,25,86,34,55,1145,340.0,490,455,60,123.0,176,1,388,259,60,0,0,340,3327,6668,339,,,,,,,,,,,,
437103,1560690743050,1,2.23,2.2,3.24,2.11,5.07,0.77,-0.0,0.66,3,-1,2,0.77,6501,25,86,34,55,1156,341.0,493,462,60,123.0,185,1,388,260,63,0,0,345,6668,-31206,339,,,,,,,,,,,,
437123,1560690743070,5,2.23,2.2,3.24,2.08,5.04,0.76,-0.01,0.7,2,0,2,0.76,6447,25,86,34,55,1164,342.0,495,465,60,122.0,185,1,388,259,63,0,0,345,-31206,-14714,339,,,,,,,,,,,,
437143,1560690743096,-0,2.24,2.21,3.21,2.09,5.07,0.65,0.11,0.58,2,2,3,0.66,6458,25,86,34,55,1168,345.0,492,462,60,123.0,185,1,388,259,63,0,0,347,6870,6870,341,45.701485,4.911899,32.85,197.6,3,2.7567,0,0.0,0.5367,4,0.43,7.2857
437163,1560690743116,-1,2.23,2.22,3.16,2.09,5.07,0.71,0.08,0.57,1,2,3,0.71,6416,25,86,34,55,1166,345.0,492,461,60,122.0,185,1,387,259,63,0,0,346,6870,-14714,342,,,,,,,,,,,,
437183,1560690743136,3,2.23,2.22,3.12,2.08,5.04,0.76,0.01,0.65,0,0,1,0.76,6434,25,86,34,55,1163,346.0,492,456,60,122.0,185,1,387,259,63,0,0,347,-30438,6870,342,,,,,,,,,,,,
437203,1560690743156,4,2.24,2.21,3.13,2.08,5.08,0.74,0.09,0.68,0,-1,-0,0.75,6472,25,86,34,55,1160,346.0,489,460,60,123.0,184,1,388,259,63,0,0,347,-30438,-10554,342,,,,,,,,,,,,
437223,1560690743176,-0,2.23,2.2,3.18,2.09,5.03,0.65,0.09,0.64,0,-0,-1,0.66,6467,25,86,34,55,1156,346.0,493,466,60,122.0,184,1,388,259,63,0,0,347,-30438,-10554,344,,,,,,,,,,,,
437243,1560690743198,4,2.21,2.21,3.21,2.09,5.04,0.76,0.06,0.74,-1,-0,-3,0.76,6512,25,86,34,55,1157,348.0,494,461,60,122.0,184,1,389,260,63,0,0,348,-1246,-30454,343,45.701477,4.911904,33.0,197.6,3,2.7567,0,0.0,0.5383,4,0.43,7.2874
437263,1560690743218,2,2.21,2.22,3.2,2.09,5.05,0.69,0.17,0.76,-1,1,-5,0.71,6510,25,86,34,55,1157,348.0,496,456,60,123.0,184,1,389,260,63,0,0,351,-1246,-30454,343,,,,,,,,,,,,
437283,1560690743238,0,2.2,2.23,3.19,2.08,5.03,0.7,0.12,0.76,-2,0,-6,0.71,6542,25,86,34,55,1159,350.0,497,466,60,122.0,184,1,389,260,63,0,0,353,-30454,2811,344,,,,,,,,,,,,
437303,1560690743258,1,2.19,2.27,3.16,2.06,5.04,0.74,0.09,0.8,-3,1,-7,0.74,6567,25,86,34,55,1162,352.0,499,463,60,123.0,186,1,389,260,64,0,0,352,28553,3183,344,,,,,,,,,,,,
437323,1560690743278,-0,2.18,2.29,3.16,2.05,5.04,0.75,0.23,0.71,-3,0,-7,0.78,6630,25,86,34,55,1165,354.0,503,459,60,123.0,186,1,390,258,64,0,0,353,3302,2811,343,,,,,,,,,,,,
437343,1560690743296,1,2.19,2.33,3.15,2.05,5.04,0.78,0.1,0.76,-4,-1,-8,0.78,6611,25,87,34,54,1168,355.0,505,461,60,121.0,186,1,387,258,64,0,0,358,2060,2811,344,45.701469,4.911911,33.27,197.6,3,2.7567,0,0.0,0.54,4,0.44,7.2891
437363,1560690743316,1,2.18,2.37,3.15,2.04,5.06,0.71,0.2,0.68,-4,-0,-8,0.74,6623,25,87,34,54,1167,357.0,507,460,60,123.0,186,1,387,258,64,0,0,357,-6640,8841,345,,,,,,,,,,,,
437383,1560690743336,-1,2.18,2.4,3.16,2.06,5.05,0.76,0.11,0.67,-4,-0,-8,0.77,6644,25,87,34,54,1169,356.0,505,462,60,122.0,186,1,388,258,64,0,0,355,4104,-6644,346,,,,,,,,,,,,
437403,1560690743356,5,2.17,2.43,3.18,2.07,5.05,0.66,0.14,0.72,-5,0,-9,0.68,6689,25,87,34,53,1167,357.0,506,456,60,123.0,183,1,384,252,63,0,0,358,-6640,-6640,347,,,,,,,,,,,,
437423,1560690743376,1,2.17,2.42,3.17,2.08,5.04,0.71,0.1,0.64,-5,-0,-9,0.72,6706,25,87,34,53,1165,358.0,505,460,60,123.0,183,1,385,252,63,0,0,359,-29978,-6640,346,,,,,,,,,,,,
437443,1560690743396,4,2.15,2.42,3.16,2.08,5.03,0.77,0.13,0.74,-6,-2,-10,0.79,6684,25,87,34,53,1159,359.0,506,457,60,123.0,183,1,384,252,63,0,0,362,-29302,4104,347,45.701462,4.911916,33.98,197.6,3,2.7567,0,0.0,0.5417,4,0.44,7.2907
437463,1560690743416,-2,2.15,2.43,3.13,2.09,5.06,0.69,0.21,0.58,-6,-1,-9,0.72,6689,25,87,34,53,1152,359.0,503,461,60,123.0,183,1,384,252,63,0,0,361,-6458,-14707,347,,,,,,,,,,,,
437483,1560690743436,4,2.13,2.42,3.09,2.08,5.08,0.74,0.17,0.7,-7,-2,-11,0.76,6715,25,87,34,52,1147,360.0,511,462,60,122.0,183,1,382,247,63,0,0,361,-14707,-6640,348,,,,,,,,,,,,
437503,1560690743456,0,2.1,2.4,3.08,2.05,5.08,0.69,0.27,0.56,-7,-3,-9,0.75,6732,24,87,34,52,1142,361.0,505,461,60,123.0,181,1,382,247,63,0,0,364,-6458,-14707,348,,,,,,,,,,,,
437523,1560690743476,5,2.1,2.4,3.06,2.04,5.04,0.73,0.22,0.66,-9,-4,-11,0.76,6734,24,87,34,51,1126,365.0,514,462,60,121.0,181,1,379,242,63,0,0,366,-6405,4104,350,,,,,,,,,,,,
437543,1560690743496,-2,2.11,2.38,3.06,2.03,5.05,0.68,0.39,0.48,-9,-1,-10,0.79,6761,24,87,34,51,1106,367.0,514,463,60,123.0,181,1,379,242,63,0,0,366,0,0,350,45.701458,4.911923,34.41,197.6,3,2.7567,0,0.0,0.5433,4,0.44,7.2924
437563,1560690743516,6,2.1,2.39,3.1,2.06,5.07,0.74,0.36,0.62,-10,-4,-12,0.83,6838,24,87,34,50,1090,368.0,517,461,60,122.0,181,1,377,237,63,0,0,369,-6656,3082,349,,,,,,,,,,,,
437583,1560690743536,1,2.1,2.39,3.1,2.08,5.07,0.67,0.39,0.53,-10,-3,-13,0.77,6875,23,87,34,50,1075,370.0,519,463,60,122.0,181,1,377,237,63,0,0,371,257,2790,350,,,,,,,,,,,,
437603,1560690743556,1,2.1,2.38,3.1,2.1,5.07,0.76,0.42,0.62,-11,-3,-15,0.86,6873,22,87,34,48,1051,371.0,521,457,60,123.0,170,1,371,232,60,0,0,371,257,-14707,352,,,,,,,,,,,,
437623,1560690743576,3,2.1,2.38,3.09,2.09,5.04,0.71,0.33,0.67,-12,-4,-16,0.78,6878,19,87,34,48,1027,370.0,521,463,60,121.0,170,1,371,222,60,0,0,370,486,-6458,353,,,,,,,,,,,,
437643,1560690743596,1,2.09,2.39,3.08,2.08,5.04,0.77,0.48,0.59,-13,-3,-17,0.91,6873,15,87,34,45,1008,373.0,528,458,60,123.0,170,1,353,218,60,0,0,376,-6656,-6405,354,45.701447,4.91193,35.21,197.7,3,2.7567,0,0.0,0.545,4,0.44,7.2941
437663,1560690743616,5,2.09,2.4,3.06,2.06,5.04,0.76,0.42,0.7,-13,-5,-18,0.87,6845,13,87,34,43,999,372.0,524,462,60,122.0,170,1,339,215,60,0,0,377,1,3082,353,,,,,,,,,,,,
437683,1560690743636,-0,2.09,2.4,3.06,2.05,5.07,0.78,0.51,0.54,-13,-4,-19,0.93,6793,12,87,34,41,986,376.0,525,460,60,123.0,170,1,324,211,60,0,0,376,3,2790,354,,,,,,,,,,,,
437703,1560690743656,4,2.09,2.39,3.06,2.03,5.04,0.83,0.46,0.65,-14,-5,-20,0.95,6713,12,87,34,39,972,376.0,523,458,60,122.0,149,1,310,208,53,0,0,374,3,28553,353,,,,,,,,,,,,
437723,1560690743676,0,2.1,2.38,3.11,2.01,5.07,0.77,0.52,0.55,-15,-4,-20,0.93,6698,12,87,34,37,963,375.0,517,458,60,123.0,149,1,304,196,53,0,0,373,3,-1246,353,,,,,,,,,,,,
437743,1560690743696,-1,2.11,2.39,3.15,2.0,5.05,0.89,0.39,0.63,-16,-4,-22,0.97,6590,11,87,34,36,960,378.0,513,466,60,122.0,149,1,301,190,53,0,0,377,2278,3302,353,45.701439,4.911938,35.19,197.6,3,2.7567,0,0.0,0.5467,4,0.44,7.2957
437763,1560690743716,1,2.13,2.39,3.17,1.97,5.06,0.86,0.39,0.69,-17,-5,-23,0.94,6434,11,87,34,35,953,378.0,507,457,60,123.0,149,1,298,185,53,0,0,376,2278,2060,352,,,,,,,,,,,,
437783,1560690743736,4,2.14,2.42,3.15,1.97,5.08,0.81,0.48,0.6,-16,-3,-24,0.94,6381,11,87,34,35,940,377.0,499,463,60,123.0,149,1,298,185,53,0,0,375,-6656,-30454,351,,,,,,,,,,,,
437803,1560690743756,-0,2.16,2.46,3.15,1.98,5.08,0.8,0.53,0.54,-16,-3,-24,0.96,6277,10,87,34,34,931,377.0,490,466,60,123.0,119,1,295,179,42,0,0,374,-6656,3302,350,,,,,,,,,,,,
437823,1560690743776,-0,2.17,2.45,3.18,1.97,5.06,0.87,0.41,0.58,-16,-3,-25,0.96,6192,10,87,34,34,924,373.0,487,467,60,122.0,119,1,295,179,42,0,0,375,-6656,-6644,351,,,,,,,,,,,,
437843,1560690743795,-1,2.21,2.42,3.22,1.97,5.04,0.99,0.27,0.66,-16,-4,-25,1.02,6081,9,87,34,33,913,373.0,480,464,60,121.0,119,1,292,174,42,0,0,373,-6656,3183,352,45.701435,4.911946,35.01,197.6,3,2.7567,0,0.0,0.5483,4,0.44,7.2974
437863,1560690743815,0,2.23,2.39,3.25,1.97,5.07,1.05,0.06,0.67,-16,-5,-26,1.05,6021,9,87,34,33,896,371.0,473,464,60,121.0,119,1,292,174,42,0,0,363,257,-1246,354,,,,,,,,,,,,
437883,1560690743835,-0,2.25,2.34,3.34,1.95,5.05,1.12,-0.07,0.65,-16,-6,-26,1.13,6109,9,87,34,33,882,368.0,470,466,60,122.0,119,1,292,174,42,0,0,343,0,8841,353,,,,,,,,,,,,
437903,1560690743855,1,2.28,2.24,3.36,1.94,5.03,1.19,-0.1,0.71,-15,-7,-26,1.19,6202,8,87,34,33,875,363.0,473,461,60,122.0,113,1,292,174,40,0,0,332,-6458,-31222,350,,,,,,,,,,,,
437923,1560690743875,2,2.31,2.2,3.38,1.93,5.04,1.12,-0.11,0.71,-13,-6,-24,1.13,6334,8,87,34,32,865,358.0,483,461,60,123.0,113,1,290,169,40,0,0,338,-29978,-31206,350,,,,,,,,,,,,
437943,1560690743895,-1,2.35,2.17,3.41,1.92,5.04,1.02,0.01,0.62,-11,-4,-22,1.02,6405,8,87,34,31,855,354.0,491,460,60,123.0,113,1,286,167,40,0,0,332,3302,3327,350,45.701427,4.911953,34.85,197.6,3,2.7567,0,0.0,0.55,4,0.44,7.299
437963,1560690743915,-0,2.38,2.16,3.44,1.93,5.06,1.07,-0.06,0.54,-9,-3,-20,1.07,6445,8,87,34,31,849,350.0,497,462,60,122.0,113,1,286,167,40,0,0,334,2811,-122,350,,,,,,,,,,,,
437983,1560690743935,2,2.42,2.14,3.46,1.94,5.05,1.05,-0.14,0.64,-6,-3,-17,1.06,6447,8,87,33,30,848,350.0,500,463,60,122.0,113,1,283,166,40,0,0,336,8841,-30438,350,,,,,,,,,,,,
438003,1560690743955,3,2.47,2.12,3.47,2.01,5.08,1.0,-0.18,0.59,-3,-1,-14,1.01,6419,8,87,33,30,847,352.0,500,463,60,123.0,113,1,283,166,40,0,0,335,-31206,-10554,353,,,,,,,,,,,,
438023,1560690743975,0,2.51,2.1,3.49,2.07,5.04,0.98,-0.16,0.51,-1,0,-10,0.99,6375,8,87,33,29,850,354.0,495,459,60,123.0,113,1,280,164,40,0,0,332,13,8841,354,,,,,,,,,,,,
438043,1560690743991,-2,2.54,2.07,3.52,2.06,5.05,1.09,-0.31,0.54,1,0,-6,1.13,6336,8,87,33,29,853,356.0,493,462,60,122.0,113,1,280,164,40,0,0,329,4838,-30438,356,45.70142,4.911962,33.45,197.6,3,2.7567,0,0.0,0.5517,4,0.44,7.3007
438063,1560690744011,3,2.55,2.03,3.55,2.1,5.03,1.12,-0.4,0.6,4,-1,-3,1.19,6300,8,87,33,29,857,356.0,493,463,60,122.0,113,1,280,164,40,0,0,323,-20736,-30454,356,,,,,,,,,,,,
438083,1560690744031,3,2.57,2.0,3.56,2.12,5.03,1.09,-0.45,0.63,7,-1,0,1.18,6252,8,87,33,29,860,357.0,487,462,60,123.0,113,1,280,164,40,0,0,318,165,28553,356,,,,,,,,,,,,
438103,1560690744051,6,2.58,1.99,3.57,2.16,5.05,1.0,-0.48,0.61,10,-1,4,1.1,6204,7,87,33,29,866,356.0,480,463,60,123.0,107,1,280,164,38,0,0,314,-24576,-30454,356,,,,,,,,,,,,
438123,1560690744071,2,2.61,1.96,3.57,2.2,5.05,0.9,-0.51,0.6,13,1,8,1.04,6155,7,87,33,29,875,355.0,476,464,60,123.0,107,1,281,164,38,0,0,312,-27136,-1246,355,,,,,,,,,,,,
438143,1560690744095,3,2.63,1.95,3.56,2.25,5.04,0.8,-0.51,0.53,15,2,12,0.95,6103,7,87,33,29,880,354.0,469,462,60,123.0,107,1,281,164,38,0,0,309,-29696,-30438,354,45.701416,4.91197,33.08,197.6,3,2.7567,0,0.0,0.5533,4,0.44,7.3024
438163,1560690744115,3,2.66,1.93,3.57,2.29,5.07,0.74,-0.51,0.49,17,2,17,0.9,6079,8,87,33,29,885,356.0,468,462,60,123.0,107,1,281,164,38,0,0,304,-30976,6870,355,,,,,,,,,,,,
438183,1560690744135,5,2.67,1.92,3.59,2.31,5.05,0.68,-0.52,0.39,18,3,22,0.85,6038,9,87,33,29,888,355.0,470,461,60,123.0,107,1,281,164,38,0,0,302,32000,6870,355,,,,,,,,,,,,
438203,1560690744155,5,2.69,1.92,3.6,2.34,5.05,0.6,-0.53,0.27,19,4,27,0.8,5996,11,87,33,30,893,351.0,468,461,60,122.0,104,1,283,165,37,0,0,298,32000,6668,351,,,,,,,,,,,,
438223,1560690744175,3,2.71,1.9,3.6,2.35,5.06,0.55,-0.52,0.2,21,5,31,0.76,5967,13,87,33,31,893,351.0,464,464,60,123.0,104,1,286,166,37,0,0,296,26880,6668,351,,,,,,,,,,,,
438243,1560690744197,3,2.72,1.88,3.62,2.34,5.06,0.5,-0.55,0.18,22,5,35,0.74,5941,16,87,33,33,892,349.0,461,463,60,123.0,104,1,291,173,37,0,0,292,100,3327,349,45.701408,4.911977,32.22,197.6,3,2.7567,0,0.0,0.555,4,0.44,7.304
438263,1560690744217,3,2.71,1.85,3.65,2.34,5.06,0.4,-0.59,0.15,25,7,39,0.72,5863,19,87,33,35,894,349.0,459,461,60,123.0,104,1,296,183,37,0,0,290,90,-14714,349,,,,,,,,,,,,
438283,1560690744237,2,2.69,1.83,3.66,2.34,5.04,0.33,-0.62,0.12,29,6,41,0.7,5806,24,87,33,39,895,350.0,456,460,60,123.0,104,1,308,207,37,0,0,283,24320,-31206,350,,,,,,,,,,,,
438303,1560690744257,2,2.7,1.83,3.66,2.36,5.05,0.4,-0.65,0.17,32,5,42,0.76,5866,27,87,33,44,897,350.0,452,462,60,123.0,131,1,335,212,46,0,0,282,85,-31222,349,,,,,,,,,,,,
438323,1560690744277,1,2.68,1.84,3.67,2.38,5.05,0.55,-0.72,0.21,34,2,44,0.91,5874,31,87,33,48,899,346.0,450,458,60,123.0,131,1,355,223,46,0,0,282,80,-31222,346,,,,,,,,,,,,
438343,1560690744297,1,2.67,1.83,3.68,2.37,5.07,0.67,-0.84,0.27,34,-1,46,1.08,5944,32,87,33,52,882,345.0,448,458,60,123.0,131,1,372,245,46,0,0,278,0,13,345,45.701401,4.911983,31.13,197.5,3,2.7567,0,0.0,0.5567,4,0.45,7.3057
438363,1560690744317,2,2.64,1.84,3.69,2.38,5.05,0.81,-0.96,0.35,35,-4,47,1.25,6052,33,87,33,56,864,345.0,451,458,60,123.0,131,1,384,256,46,0,0,282,0,3346,345,,,,,,,,,,,,
438383,1560690744337,3,2.62,1.85,3.68,2.36,5.05,0.89,-0.99,0.4,36,-6,47,1.33,6196,34,87,33,58,843,345.0,458,457,60,123.0,131,1,387,258,46,0,0,283,0,13,345,,,,,,,,,,,,
438403,1560690744357,5,2.58,1.85,3.66,2.35,5.07,0.86,-0.93,0.35,36,-5,48,1.27,6328,34,87,33,59,821,343.0,463,458,60,123.0,177,1,392,263,61,0,0,286,20480,-122,343,,,,,,,,,,,,
438423,1560690744377,-0,2.55,1.89,3.6,2.35,5.05,0.85,-0.87,0.29,34,-3,49,1.22,6452,34,87,33,61,805,341.0,471,461,60,123.0,177,1,400,270,61,0,0,288,0,3346,341,,,,,,,,,,,,
438443,1560690744397,3,2.54,1.89,3.55,2.34,5.07,0.88,-0.91,0.31,33,-2,48,1.27,6465,35,87,33,62,790,336.0,479,467,60,122.0,177,1,397,278,61,0,0,289,20480,-31222,336,45.701397,4.911988,30.59,197.5,3,2.7567,0,0.0,0.5583,4,0.45,7.3074
438463,1560690744417,5,2.53,1.9,3.51,2.32,5.08,0.84,-0.83,0.32,33,-2,47,1.18,6539,35,87,33,63,787,334.0,475,455,60,123.0,177,1,396,279,61,0,0,291,21760,-20736,332,,,,,,,,,,,,
438483,1560690744437,-1,2.54,1.95,3.45,2.32,5.05,0.86,-0.85,0.33,31,-2,46,1.21,6447,35,87,33,64,792,332.0,368,466,60,122.0,177,1,389,282,61,0,0,302,90,-12032,332,,,,,,,,,,,,
438503,1560690744457,-2,2.55,2.03,3.4,2.32,5.06,0.86,-0.84,0.44,30,-2,44,1.2,6291,35,87,33,64,806,333.0,306,472,60,122.0,207,1,382,282,69,0,0,327,26880,3346,332,,,,,,,,,,,,
438523,1560690744477,1,2.57,2.07,3.39,2.36,5.08,0.87,-0.89,0.52,29,-4,42,1.24,6139,35,87,33,65,823,335.0,300,461,60,122.0,207,1,373,285,69,0,0,350,28160,-6528,335,,,,,,,,,,,,
438543,1560690744497,-0,2.57,2.09,3.38,2.36,5.04,0.82,-0.91,0.51,28,-5,40,1.22,6019,35,87,33,66,836,336.0,315,462,60,122.0,207,1,365,289,69,0,0,332,110,13,336,45.701386,4.911991,29.94,197.5,3,2.7567,0,0.0,0.56,4,0.45,7.3091
438563,1560690744517,0,2.59,2.09,3.39,2.35,5.06,0.77,-0.9,0.56,28,-6,39,1.19,5969,36,87,33,67,848,337.0,295,460,60,122.0,207,1,359,299,69,0,0,316,29440,3346,336,,,,,,,,,,,,
438583,1560690744537,0,2.62,2.07,3.42,2.33,5.04,0.79,-0.96,0.62,28,-7,38,1.24,5998,36,87,33,68,887,340.0,323,468,60,122.0,207,1,357,308,69,0,0,312,115,-31222,340,,,,,,,,,,,,
438603,1560690744557,0,2.63,2.05,3.5,2.31,5.06,0.8,-1.01,0.62,29,-7,36,1.29,6046,36,87,33,68,949,340.0,335,460,60,122.0,207,1,359,307,70,0,0,312,115,-31222,340,,,,,,,,,,,,
438623,1560690744577,2,2.66,2.04,3.56,2.33,5.03,0.83,-1.1,0.65,29,-7,35,1.38,6101,36,87,33,68,1003,343.0,358,456,60,123.0,207,1,361,309,70,0,0,317,28160,-31222,343,,,,,,,,,,,,
438643,1560690744597,4,2.7,2.05,3.62,2.36,5.07,0.75,-1.08,0.7,29,-7,35,1.32,6206,37,87,33,69,1051,343.0,378,461,60,122.0,207,1,364,327,70,0,0,318,110,-31222,343,45.701378,4.911994,30.9,197.5,3,2.7567,0,0.0,0.5617,4,0.45,7.3107
438663,1560690744617,5,2.76,2.04,3.66,2.35,5.07,0.73,-1.02,0.67,30,-6,34,1.25,6229,38,87,33,69,1108,345.0,404,460,60,124.0,207,1,364,327,70,0,0,331,26880,-122,343,,,,,,,,,,,,
438683,1560690744637,-1,2.81,2.03,3.67,2.36,5.03,0.74,-0.98,0.58,31,-7,34,1.23,6277,38,87,33,70,1172,345.0,426,460,60,123.0,207,1,365,327,70,0,0,331,26880,6668,345,,,,,,,,,,,,
438703,1560690744657,-0,2.85,2.02,3.68,2.35,5.04,0.8,-1.02,0.52,32,-5,35,1.3,6343,38,87,33,70,1224,347.0,441,460,60,123.0,237,1,367,344,82,0,0,335,100,6668,347,,,,,,,,,,,,
438723,1560690744677,1,2.89,2.01,3.69,2.35,5.07,0.77,-1.12,0.56,32,-7,36,1.36,6481,39,87,33,70,1239,346.0,451,458,60,121.0,237,1,372,347,82,0,0,353,95,6668,346,,,,,,,,,,,,
438743,1560690744697,1,2.93,2.0,3.69,2.35,5.08,0.72,-0.97,0.48,33,-6,37,1.21,6544,39,87,33,70,1251,347.0,463,460,60,123.0,237,1,374,348,82,0,0,358,90,-10554,347,45.701374,4.911995,31.3,197.5,3,2.7567,0,0.0,0.5633,4,0.45,7.3124
438763,1560690744717,3,0.32,1.98,3.69,2.35,5.06,0.85,-1.0,0.48,34,-9,39,1.31,6677,39,87,33,70,1261,344.0,473,461,60,121.0,237,1,379,350,82,0,0,346,85,6870,344,,,,,,,,,,,,
438783,1560690744737,-0,0.33,1.96,3.68,2.34,5.07,0.73,-0.95,0.42,36,-8,41,1.2,6734,39,87,33,69,1267,346.0,485,456,60,123.0,237,1,381,351,82,0,0,353,85,3183,345,,,,,,,,,,,,
438803,1560690744757,3,0.34,1.97,3.67,2.39,5.07,0.86,-1.06,0.47,36,-8,43,1.36,6776,39,87,33,70,1261,347.0,485,464,60,121.0,247,1,382,352,86,0,0,368,85,3302,347,,,,,,,,,,,,
438823,1560690744777,1,0.35,2.01,3.69,2.42,5.06,0.75,-1.0,0.41,37,-6,45,1.25,6828,39,87,33,69,1252,349.0,492,455,60,123.0,247,1,385,338,86,0,0,402,0,-29978,349,,,,,,,,,,,,
438843,1560690744797,5,0.34,2.03,3.69,2.44,5.07,0.83,-1.08,0.51,37,-7,47,1.37,6972,39,87,33,69,1238,348.0,502,462,60,121.0,247,1,390,341,86,0,0,396,21760,-6640,348,45.701363,4.911996,30.86,197.5,3,2.7567,0,0.0,0.565,4,0.45,7.3141
438863,1560690744817,2,0.35,2.04,3.68,2.44,5.04,0.78,-1.14,0.52,39,-8,48,1.39,7080,39,87,33,69,1227,348.0,513,461,60,123.0,247,1,395,344,86,0,0,373,0,2060,348,,,,,,,,,,,,
438883,1560690744837,-0,0.33,2.03,3.68,2.42,5.05,0.69,-1.04,0.42,40,-6,49,1.25,7115,39,87,33,68,1220,350.0,519,460,60,123.0,247,1,398,331,86,0,0,367,21760,3082,350,,,,,,,,,,,,
438903,1560690744857,1,2.92,2.03,3.68,2.43,5.05,0.69,-1.03,0.49,40,-7,52,1.24,7115,39,87,33,68,1207,355.0,519,459,60,123.0,253,1,398,331,89,0,0,382,85,486,355,,,,,,,,,,,,
438923,1560690744877,6,2.91,2.02,3.65,2.44,5.08,0.73,-1.08,0.58,41,-4,52,1.3,7075,39,87,33,68,1177,357.0,517,467,60,122.0,253,1,396,330,89,0,0,391,23040,-6656,360,,,,,,,,,,,,
438943,1560690744896,1,2.9,2.01,3.62,2.44,5.08,0.57,-1.03,0.56,43,-2,53,1.18,6996,40,87,33,68,1146,361.0,515,454,60,123.0,253,1,391,326,89,0,0,381,90,-6656,361,45.701359,4.911996,31.17,197.5,3,2.7567,0,0.0,0.5667,4,0.45,7.3157
438963,1560690744916,1,2.87,2.0,3.61,2.46,5.04,0.53,-1.01,0.56,43,-4,55,1.14,6980,40,87,33,68,1122,364.0,515,460,60,123.0,253,1,391,326,89,0,0,357,26880,8200,364,,,,,,,,,,,,
438983,1560690744936,3,2.85,2.0,3.63,2.47,5.04,0.6,-1.08,0.51,44,-5,57,1.24,6923,40,88,33,69,1097,367.0,512,462,60,121.0,253,1,388,340,89,0,0,373,105,742,367,,,,,,,,,,,,
439003,1560690744956,-2,2.83,2.0,3.65,2.48,5.04,0.54,-1.01,0.46,44,-2,59,1.14,6903,40,88,33,69,1059,369.0,511,460,60,123.0,239,1,387,340,88,0,0,398,29440,-18948,369,,,,,,,,,,,,
439023,1560690744976,5,2.8,2.01,3.67,2.49,5.07,0.62,-1.1,0.52,45,-7,60,1.26,7030,40,87,33,69,1022,372.0,513,458,60,122.0,239,1,392,342,88,0,0,377,28160,770,372,,,,,,,,,,,,
439043,1560690744996,4,2.79,2.01,3.69,2.49,5.05,0.72,-1.13,0.53,45,-5,61,1.34,7131,40,87,33,69,1009,372.0,516,462,60,122.0,239,1,398,346,88,0,0,367,30720,-992,372,45.701359,4.911996,31.17,197.5,3,2.7567,0,0.0,0.5667,4,0.45,7.3174
439063,1560690745010,2,2.75,2.02,3.68,2.53,5.04,0.57,-1.11,0.42,46,-3,62,1.25,7200,40,87,33,68,996,373.0,517,453,60,123.0,239,1,403,335,88,0,0,387,32000,19125,373,,,,,,,,,,,,
439083,1560690745030,4,2.71,2.05,3.67,2.53,5.04,0.53,-1.13,0.47,46,-2,62,1.25,7318,40,87,33,67,984,375.0,526,460,60,123.0,239,1,414,339,88,0,0,401,120,-3866,375,,,,,,,,,,,,
439103,1560690745050,2,2.65,2.07,3.62,2.53,5.08,0.49,-1.08,0.49,45,-2,62,1.18,7396,40,87,33,67,972,376.0,532,462,60,123.0,254,1,417,336,95,0,0,380,-32256,1,376,,,,,,,,,,,,
439123,1560690745070,2,2.58,2.06,3.59,2.53,5.07,0.47,-1.08,0.44,45,-5,61,1.18,7440,40,87,33,66,972,376.0,506,458,60,123.0,254,1,423,331,95,0,0,376,-29696,1,376,,,,,,,,,,,,
439143,1560690745096,0,2.48,2.05,3.57,2.53,5.03,0.58,-1.13,0.57,44,-5,60,1.27,7335,40,87,33,66,973,379.0,508,461,60,122.0,254,1,417,328,95,0,0,415,145,-1818,379,45.70134,4.91199,33.62,197.4,3,2.7567,0,0.0,0.57,4,0.45,7.319
439163,1560690745116,-0,2.4,2.06,3.49,2.51,5.07,0.72,-1.09,0.52,41,-4,61,1.3,7321,40,88,33,66,966,378.0,514,457,60,122.0,254,1,417,327,95,0,0,414,155,17144,378,,,,,,,,,,,,
439183,1560690745136,1,2.32,2.1,3.38,2.48,5.05,0.78,-1.05,0.55,38,-3,59,1.31,7338,40,88,33,66,958,380.0,503,461,60,121.0,254,1,417,328,95,0,0,370,175,28696,380,,,,,,,,,,,,
439203,1560690745156,5,2.27,2.2,3.27,2.45,5.06,0.86,-1.05,0.55,36,-2,57,1.36,7338,41,88,33,66,950,378.0,476,460,60,121.0,239,1,417,328,91,0,0,360,-31206,-32702,378,,,,,,,,,,,,
439223,1560690745176,3,2.23,2.28,3.21,2.47,5.07,0.77,-1.02,0.56,33,0,55,1.27,7247,41,88,33,67,940,375.0,471,462,60,121.0,239,1,407,325,91,0,0,377,2060,-6524,375,,,,,,,,,,,,
439243,1560690745196,2,2.2,2.3,3.21,2.46,5.03,0.59,-0.85,0.56,29,3,51,1.04,7094,42,88,33,67,919,373.0,405,452,60,123.0,239,1,402,325,91,0,0,402,-6458,240,374,45.701332,4.911985,34.68,197.3,3,2.7567,0,0.0,0.5717,4,0.45,7.3207
439263,1560690745216,1,2.18,2.34,3.16,2.44,5.08,0.65,-0.67,0.57,24,2,47,0.93,7070,42,88,33,68,896,373.0,433,459,60,121.0,239,1,396,329,91,0,0,385,0,-3866,373,,,,,,,,,,,,
439283,1560690745236,5,2.16,2.41,3.09,2.4,5.06,0.71,-0.61,0.65,20,2,44,0.94,7051,43,88,33,69,880,377.0,446,458,60,121.0,239,1,393,343,91,0,0,383,-6656,-19126,374,,,,,,,,,,,,
439303,1560690745256,4,2.15,2.46,3.04,2.36,5.04,0.63,-0.49,0.65,18,4,40,0.8,7091,43,88,33,70,865,380.0,468,462,60,122.0,247,1,395,344,92,0,0,386,-992,-992,371,,,,,,,,,,,,
439323,1560690745276,2,2.15,2.49,3.01,2.3,5.04,0.57,-0.34,0.59,14,2,34,0.66,7203,47,88,33,70,853,384.0,477,460,60,123.0,247,1,401,363,92,0,0,387,-19019,-19019,371,,,,,,,,,,,,
439343,1560690745296,-1,2.14,2.52,3.0,2.26,5.05,0.69,-0.23,0.66,10,-1,27,0.72,7275,53,88,33,73,842,387.0,486,459,60,123.0,247,1,401,405,92,0,0,391,240,-19126,373,45.701324,4.911978,35.68,197.3,3,2.7567,0,0.0,0.5733,4,0.45,7.3224
439363,1560690745316,1,2.11,2.56,3.03,2.25,5.07,0.72,-0.08,0.69,7,-1,22,0.72,7416,58,88,33,75,838,388.0,492,458,60,123.0,247,1,406,446,92,0,0,398,-31744,1,374,,,,,,,,,,,,
439383,1560690745336,1,2.11,2.56,3.03,2.23,5.07,0.77,-0.02,0.73,4,-2,18,0.77,7536,62,88,33,78,840,392.0,505,459,60,123.0,247,1,411,461,92,0,0,401,1,505,377,,,,,,,,,,,,
439403,1560690745356,3,2.1,2.57,3.0,2.21,5.03,0.75,0.12,0.69,1,-3,14,0.76,7697,64,88,33,80,852,398.0,520,457,60,123.0,359,1,420,477,135,0,0,406,6384,10392,379,,,,,,,,,,,,
439423,1560690745376,5,2.1,2.6,2.98,2.19,5.04,0.63,0.21,0.7,-1,-4,11,0.66,7805,65,88,33,81,872,404.0,528,457,60,122.0,359,1,426,486,135,0,0,409,1504,-21944,380,,,,,,,,,,,,
439443,1560690745398,0,2.09,2.62,2.98,2.17,5.07,0.6,0.15,0.78,-2,-1,7,0.61,7955,65,88,33,81,890,407.0,541,460,60,122.0,359,1,435,495,135,0,0,416,-26615,-21792,383,45.701317,4.911972,36.93,197.3,3,2.7567,0,0.0,0.575,4,0.45,7.324
439463,1560690745418,3,2.11,2.64,2.95,2.16,5.05,0.67,0.21,0.83,-4,-3,5,0.7,8095,65,88,33,80,907,411.0,559,458,60,122.0,359,1,436,484,135,0,0,422,-9166,13180,386,,,,,,,,,,,,
439483,1560690745438,1,2.12,2.67,2.96,2.19,5.06,0.63,0.18,0.9,-5,-1,1,0.65,8155,66,88,33,79,925,417.0,560,454,60,122.0,359,1,435,478,135,0,0,431,-21944,31796,388,,,,,,,,,,,,
439503,1560690745458,4,2.14,2.68,2.96,2.22,5.08,0.55,0.21,0.92,-6,-1,-3,0.59,8230,66,88,33,78,943,420.0,575,457,60,122.0,383,1,433,472,150,0,0,436,-8165,26704,394,,,,,,,,,,,,
439523,1560690745478,-1,2.15,2.68,2.96,2.23,5.06,0.52,0.15,0.96,-7,-2,-5,0.55,8311,66,88,33,77,956,425.0,585,458,60,122.0,383,1,431,464,150,0,0,448,-3856,-26615,401,,,,,,,,,,,,
439543,1560690745496,4,2.18,2.68,2.96,2.23,5.08,0.46,0.32,0.94,-8,0,-6,0.56,8411,66,88,33,76,958,431.0,588,453,60,121.0,383,1,429,454,150,0,0,449,-3322,-8985,406,45.701305,4.911966,38.16,197.3,3,2.7567,0,0.0,0.5767,4,0.46,7.3257
439563,1560690745516,4,2.2,2.68,2.96,2.22,5.04,0.45,0.18,1.02,-8,0,-8,0.48,8442,67,88,33,76,957,438.0,594,458,60,121.0,383,1,428,454,150,0,0,450,21580,10305,413,,,,,,,,,,,,
439583,1560690745536,1,2.23,2.67,2.95,2.24,5.07,0.45,0.26,1.11,-8,-1,-8,0.52,8499,67,88,33,75,953,440.0,597,461,60,122.0,383,1,428,455,150,0,0,456,20625,-3267,418,,,,,,,,,,,,
439603,1560690745556,5,2.25,2.67,2.96,2.28,5.06,0.38,0.38,0.99,-8,-0,-9,0.54,8534,68,88,33,75,949,441.0,600,450,60,121.0,340,1,427,436,144,0,0,457,26704,-23623,425,,,,,,,,,,,,
439623,1560690745576,3,2.28,2.63,2.99,2.29,5.08,0.41,0.21,1.06,-7,-0,-10,0.46,8569,70,88,33,75,943,446.0,595,455,60,121.0,340,1,426,446,144,0,0,463,16648,-18108,433,,,,,,,,,,,,
439643,1560690745597,0,2.3,2.61,3.04,2.32,5.07,0.49,0.15,1.15,-6,-1,-9,0.51,8612,73,88,33,76,942,449.0,594,460,60,122.0,340,1,424,456,144,0,0,467,-3267,-16384,443,45.701302,4.911961,40.89,197.2,3,2.7567,0,0.0,0.5783,4,0.46,7.3274
439663,1560690745617,1,2.3,2.61,3.05,2.37,5.05,0.44,0.24,1.07,-5,0,-7,0.5,8720,76,88,33,79,949,452.0,600,456,60,121.0,340,1,422,483,144,0,0,469,-6387,243,449,,,,,,,,,,,,
439683,1560690745637,4,2.32,2.58,3.07,2.37,5.04,0.26,0.35,1.03,-4,2,-6,0.44,8806,79,88,33,80,958,455.0,608,458,60,122.0,340,1,420,497,144,0,0,473,14488,2212,454,,,,,,,,,,,,
439703,1560690745657,7,2.32,2.55,3.1,2.36,5.05,0.16,0.44,0.93,-3,-0,-6,0.47,8941,81,88,33,81,970,459.0,607,457,60,122.0,372,1,418,526,171,0,0,476,-18108,-23367,462,,,,,,,,,,,,
439723,1560690745677,1,2.31,2.53,3.13,2.36,5.05,0.06,0.52,0.82,-2,3,-6,0.52,9066,82,88,33,82,988,466.0,609,453,60,121.0,372,1,417,526,171,0,0,481,2211,-10483,466,,,,,,,,,,,,
439743,1560690745698,2,2.33,2.54,3.13,2.38,5.08,-0.03,0.58,0.72,-1,0,-5,0.58,9168,83,88,33,83,1026,472.0,617,448,60,122.0,372,1,418,540,171,0,0,489,243,-1562,472,45.701286,4.911955,43.44,197.2,3,2.7567,0,0.0,0.58,4,0.46,7.3291
439763,1560690745718,4,2.32,2.55,3.14,2.41,5.05,-0.02,0.6,0.66,0,4,-3,0.6,9286,83,88,33,83,1064,473.0,615,459,60,122.0,372,1,418,540,171,0,0,494,-16384,505,474,,,,,,,,,,,,
439783,1560690745738,5,2.32,2.54,3.14,2.4,5.05,0.14,0.43,0.77,0,1,-3,0.45,9403,83,88,33,83,1090,478.0,615,456,60,122.0,372,1,418,555,171,0,0,504,-17956,11560,478,,,,,,,,,,,,
439803,1560690745758,2,2.33,2.54,3.14,2.4,5.08,0.21,0.29,0.84,0,-0,-2,0.35,9532,84,88,33,82,1119,486.0,625,462,60,121.0,410,1,416,555,198,0,0,510,32033,6274,486,,,,,,,,,,,,
439823,1560690745778,4,2.32,2.54,3.14,2.41,5.07,0.19,0.3,0.84,1,2,-0,0.36,9664,84,88,33,82,1153,492.0,615,454,60,122.0,410,1,410,539,198,0,0,516,-1562,-21872,490,,,,,,,,,,,,
439843,1560690745797,2,2.32,2.56,3.09,2.43,5.06,0.28,0.21,0.84,1,2,1,0.35,9775,84,88,33,82,1187,495.0,623,461,60,121.0,410,1,404,539,198,0,0,520,-1818,-8187,497,45.701279,4.911949,46.15,197.2,3,2.7567,0,0.0,0.5817,4,0.46,7.3307
439863,1560690745817,3,2.33,2.55,3.1,2.42,5.06,0.22,0.16,0.87,2,2,2,0.27,9878,84,88,33,81,1196,500.0,625,455,60,122.0,410,1,401,528,198,0,0,524,771,-9072,500,,,,,,,,,,,,
439883,1560690745837,2,2.33,2.55,3.11,2.43,5.07,0.18,0.12,0.86,3,3,1,0.21,9894,84,88,33,81,1204,507.0,610,458,60,121.0,410,1,401,529,198,0,0,542,11560,-3082,507,,,,,,,,,,,,
439903,1560690745857,3,2.32,2.55,3.1,2.44,5.06,0.21,-0.03,0.95,3,1,2,0.22,10005,84,88,33,81,1192,513.0,618,458,60,122.0,390,1,396,529,200,0,0,533,2109,-30064,513,,,,,,,,,,,,
439923,1560690745877,3,2.33,2.55,3.1,2.45,5.06,0.28,0.02,0.94,4,3,2,0.28,10113,84,88,33,81,1179,520.0,617,457,60,122.0,390,1,403,529,200,0,0,539,-4054,2104,520,,,,,,,,,,,,
439943,1560690745897,2,2.33,2.55,3.1,2.47,5.06,0.28,-0.01,1.0,4,1,3,0.28,10168,84,88,33,81,1159,525.0,626,457,60,121.0,390,1,407,529,200,0,0,548,16383,1779,525,45.701267,4.911942,48.55,197.2,3,2.7567,0,0.0,0.5833,4,0.46,7.3324
439963,1560690745917,5,2.32,2.54,3.11,2.47,5.06,0.31,-0.05,1.02,4,1,3,0.32,10290,84,88,33,81,1138,530.0,629,458,60,122.0,390,1,415,529,200,0,0,554,-9212,2104,530,,,,,,,,,,,,
439983,1560690745937,2,2.34,2.53,3.11,2.46,5.04,0.37,-0.04,1.01,4,0,4,0.37,10410,84,88,33,81,1118,536.0,628,453,60,122.0,390,1,423,529,200,0,0,553,10408,-22263,536,,,,,,,,,,,,
440003,1560690745957,2,2.34,2.54,3.12,2.48,5.06,0.34,-0.05,0.88,4,-1,6,0.34,10474,84,88,33,81,1098,541.0,621,460,60,122.0,391,1,428,529,210,0,0,568,14504,6273,540,,,,,,,,,,,,
440023,1560690745977,6,2.33,2.54,3.11,2.48,5.06,0.34,-0.1,0.89,5,-1,6,0.36,10593,84,88,33,81,1093,546.0,630,454,60,121.0,391,1,432,529,210,0,0,559,-32248,1267,545,,,,,,,,,,,,
440043,1560690745997,5,2.34,2.54,3.14,2.46,5.05,0.39,-0.15,0.86,4,-2,7,0.42,10659,84,88,33,81,1093,549.0,631,460,60,121.0,391,1,435,529,210,0,0,573,-3082,-3190,549,45.701267,4.911942,48.55,197.2,3,2.7567,0,0.0,0.5833,4,0.46,7.3341
440063,1560690746009,-0,2.34,2.53,3.15,2.46,5.07,0.38,-0.25,0.96,5,1,6,0.45,10744,84,88,33,81,1090,554.0,625,461,60,121.0,391,1,436,529,210,0,0,581,-22519,-16384,554,,,,,,,,,,,,
440083,1560690746029,2,2.33,2.53,3.17,2.46,5.05,0.38,-0.24,0.99,5,0,6,0.45,10882,85,88,33,81,1087,560.0,627,461,60,120.0,391,1,439,529,210,0,0,585,6274,-16384,562,,,,,,,,,,,,
440103,1560690746049,5,2.33,2.53,3.17,2.47,5.05,0.34,-0.17,0.98,5,1,6,0.38,10932,85,88,33,81,1083,565.0,636,455,60,121.0,386,1,441,529,218,0,0,584,-22359,15649,565,,,,,,,,,,,,
440123,1560690746069,2,2.33,2.52,3.17,2.47,5.05,0.35,-0.26,1.08,6,-0,5,0.43,11068,85,88,33,81,1079,571.0,638,453,60,121.0,386,1,443,521,218,0,0,590,-32504,-32504,571,,,,,,,,,,,,
440143,1560690746097,3,2.33,2.53,3.16,2.47,5.04,0.31,-0.28,0.95,6,-1,6,0.42,11220,85,88,33,81,1071,577.0,641,457,60,121.0,386,1,443,521,218,0,0,597,-2934,23619,575,45.701241,4.911927,53.12,197.2,3,2.7567,0,0.0,0.5867,4,0.46,7.3357
440163,1560690746117,2,2.34,2.53,3.14,2.47,5.07,0.36,-0.25,1.03,6,-1,6,0.44,11288,85,88,33,80,1063,583.0,643,460,60,121.0,386,1,442,521,218,0,0,606,1267,-768,583,,,,,,,,,,,,
440183,1560690746137,4,2.33,2.53,3.15,2.5,5.04,0.31,-0.24,0.99,6,-0,6,0.4,11363,85,88,33,80,1058,586.0,645,460,60,122.0,386,1,442,521,218,0,0,606,774,-3820,586,,,,,,,,,,,,
440203,1560690746157,2,2.34,2.52,3.16,2.51,5.07,0.32,-0.37,1.09,6,1,4,0.49,11439,85,88,33,80,1053,589.0,642,459,60,121.0,382,1,441,521,225,0,0,621,774,-3446,589,,,,,,,,,,,,
440223,1560690746177,3,2.33,2.53,3.16,2.5,5.06,0.34,-0.31,1.03,7,0,6,0.46,11581,85,88,33,80,1039,594.0,640,457,60,121.0,382,1,440,521,225,0,0,620,15649,30721,594,,,,,,,,,,,,
440243,1560690746197,5,2.33,2.53,3.16,2.5,5.08,0.36,-0.19,0.78,6,-2,9,0.41,11667,85,88,33,79,1021,599.0,643,461,60,120.0,382,1,440,515,225,0,0,622,-12040,-1346,599,45.701229,4.911919,54.99,197.1,3,2.7567,0,0.0,0.5883,4,0.46,7.3374
440263,1560690746217,5,2.33,2.52,3.16,2.49,5.07,0.36,-0.1,0.85,6,1,11,0.37,11770,85,88,33,80,1005,606.0,647,460,60,121.0,382,1,440,526,225,0,0,630,23619,771,606,,,,,,,,,,,,
440283,1560690746237,3,2.33,2.53,3.17,2.48,5.06,0.32,-0.05,0.97,6,1,10,0.33,11867,85,88,33,79,992,610.0,648,456,60,121.0,382,1,440,518,225,0,0,636,-7939,-5120,610,,,,,,,,,,,,
440303,1560690746257,5,2.33,2.52,3.17,2.49,5.04,0.34,-0.11,1.04,6,2,9,0.35,11965,85,88,33,79,972,614.0,655,456,60,120.0,388,1,440,528,238,0,0,649,243,11566,616,,,,,,,,,,,,
440323,1560690746277,5,2.33,2.52,3.17,2.5,5.04,0.36,-0.17,1.1,6,3,10,0.4,12057,85,88,33,80,945,619.0,658,457,60,121.0,388,1,440,530,238,0,0,644,19621,244,619,,,,,,,,,,,,
440343,1560690746297,6,2.32,2.53,3.19,2.5,5.05,0.36,-0.12,1.16,5,5,10,0.38,12135,85,88,33,79,925,625.0,650,461,60,121.0,388,1,440,521,238,0,0,655,-28304,244,625,45.701218,4.91191,58.74,197.1,3,2.7567,0,0.0,0.59,4,0.47,7.339
440363,1560690746317,6,2.34,2.51,3.18,2.49,5.07,0.31,0.03,1.05,4,2,12,0.32,12222,85,88,33,79,912,628.0,650,460,60,120.0,388,1,440,521,238,0,0,658,19320,31988,628,,,,,,,,,,,,
440383,1560690746337,2,2.34,2.51,3.18,2.48,5.06,0.28,0.09,0.97,5,2,12,0.29,12303,85,88,33,79,893,633.0,649,457,60,121.0,388,1,440,522,238,0,0,652,-1346,8958,635,,,,,,,,,,,,
440403,1560690746357,4,2.33,2.52,3.18,2.48,5.05,0.28,-0.01,0.84,6,2,12,0.28,12376,85,88,33,80,869,639.0,653,458,60,120.0,384,1,440,532,244,0,0,666,-14655,-3038,639,,,,,,,,,,,,
440423,1560690746377,3,2.33,2.52,3.17,2.52,5.06,0.38,-0.21,0.93,6,2,11,0.43,12409,85,88,33,80,849,640.0,650,456,60,120.0,384,1,440,532,244,0,0,661,-16046,3543,643,,,,,,,,,,,,
440443,1560690746398,-1,2.34,2.51,3.17,2.51,5.07,0.44,-0.28,1.03,6,0,12,0.52,12441,86,88,33,80,838,645.0,653,462,60,120.0,384,1,440,533,244,0,0,677,-2836,-2826,649,45.701202,4.9119,60.11,197.1,3,2.7567,0,0.0,0.5917,4,0.47,7.3407
440463,1560690746418,4,2.32,2.51,3.17,2.5,5.04,0.4,-0.23,0.99,6,1,12,0.46,12508,86,88,33,80,826,648.0,652,459,60,121.0,384,1,440,533,244,0,0,670,-2830,1549,652,,,,,,,,,,,,
440483,1560690746438,4,2.32,2.49,3.19,2.5,5.06,0.38,-0.26,1.0,5,0,12,0.46,12643,86,88,33,79,810,656.0,648,461,60,120.0,384,1,440,525,244,0,0,677,11776,6208,657,,,,,,,,,,,,
440503,1560690746458,1,2.32,2.48,3.21,2.5,5.08,0.5,-0.32,1.1,5,-2,12,0.6,12720,86,88,33,80,798,661.0,648,460,60,120.0,391,1,440,535,257,0,0,685,-30207,-10399,661,,,,,,,,,,,,
440523,1560690746478,7,2.32,2.48,3.24,2.49,5.06,0.42,-0.26,1.12,6,-2,11,0.49,12781,86,88,33,80,793,665.0,655,458,60,120.0,391,1,440,535,257,0,0,690,-3488,-2345,665,,,,,,,,,,,,
440543,1560690746497,4,2.31,2.49,3.22,2.48,5.06,0.48,-0.3,1.19,6,-4,11,0.57,12877,86,88,33,80,788,668.0,649,452,60,121.0,391,1,440,536,257,0,0,686,-26380,-3584,668,45.701187,4.911889,63.21,197.1,3,2.7567,0,0.0,0.5933,4,0.47,7.3424
440563,1560690746517,1,2.32,2.49,3.21,2.49,5.05,0.48,-0.2,1.09,6,-3,12,0.52,13002,86,88,33,80,783,671.0,654,449,60,121.0,391,1,440,536,257,0,0,685,-10348,1780,671,,,,,,,,,,,,
440583,1560690746537,8,2.31,2.49,3.19,2.48,5.08,0.47,-0.34,1.12,6,-3,11,0.58,12975,86,88,33,80,778,675.0,656,457,60,121.0,391,1,440,537,257,0,0,696,-27404,1780,676,,,,,,,,,,,,
440603,1560690746557,5,2.31,2.49,3.19,2.49,5.04,0.42,-0.27,1.09,6,-2,11,0.5,13038,86,88,33,81,777,677.0,655,463,60,120.0,390,1,440,537,265,0,0,700,31988,24,681,,,,,,,,,,,,
440623,1560690746577,5,2.3,2.47,3.19,2.47,5.03,0.49,-0.39,1.0,5,-3,9,0.63,13111,86,88,33,80,776,686.0,660,461,60,120.0,390,1,440,537,265,0,0,705,-2345,11069,686,,,,,,,,,,,,
440643,1560690746597,3,2.31,2.48,3.2,2.46,5.04,0.43,-0.25,1.03,6,-4,10,0.5,13130,86,88,33,80,773,687.0,657,458,60,120.0,390,1,440,537,265,0,0,704,-10344,-3888,687,45.701176,4.911877,64.66,197.1,3,2.7567,0,0.0,0.595,4,0.47,7.344
440663,1560690746617,7,2.31,2.48,3.2,2.45,5.06,0.45,-0.33,1.12,5,-3,10,0.56,13213,86,88,33,80,771,692.0,658,452,60,121.0,390,1,440,537,265,0,0,712,-10399,204,689,,,,,,,,,,,,
440683,1560690746637,8,2.29,2.48,3.21,2.44,5.03,0.38,-0.32,1.05,5,-1,8,0.5,13316,86,88,33,81,769,694.0,658,456,60,121.0,390,1,440,544,265,0,0,709,6208,204,691,,,,,,,,,,,,
440703,1560690746657,5,2.29,2.48,3.2,2.44,5.04,0.31,-0.27,0.93,5,1,7,0.41,13335,86,88,33,81,766,697.0,660,457,60,121.0,394,1,440,544,274,0,0,713,24,-2918,697,,,,,,,,,,,,
440723,1560690746677,8,2.29,2.48,3.17,2.44,5.04,0.44,-0.34,0.94,4,-0,6,0.56,13469,87,88,33,81,764,700.0,657,458,60,121.0,394,1,440,544,274,0,0,713,-10448,204,700,,,,,,,,,,,,
440743,1560690746697,8,2.3,2.47,3.16,2.42,5.07,0.5,-0.31,0.89,5,0,7,0.59,13479,87,88,33,81,762,704.0,658,457,60,121.0,394,1,440,544,274,0,0,729,8010,-388,704,45.70116,4.911865,66.62,197.1,3,2.7567,0,0.0,0.5967,4,0.47,7.3457
440763,1560690746717,8,2.29,2.48,3.16,2.4,5.05,0.51,-0.31,0.85,4,0,7,0.6,13537,87,88,33,80,762,710.0,657,452,60,120.0,394,1,440,544,274,0,0,722,11069,-22796,710,,,,,,,,,,,,
440783,1560690746737,6,2.3,2.47,3.17,2.41,5.05,0.44,-0.27,0.84,5,0,5,0.51,13450,87,88,33,81,762,712.0,665,461,60,120.0,394,1,440,544,274,0,0,734,6658,-2918,712,,,,,,,,,,,,
440803,1560690746757,6,2.3,2.48,3.2,2.41,5.04,0.58,-0.33,0.9,4,-1,3,0.67,13557,87,88,33,81,759,713.0,662,459,60,121.0,390,1,440,544,279,0,0,729,-13072,-4091,713,,,,,,,,,,,,
440823,1560690746777,3,2.3,2.49,3.2,2.4,5.05,0.52,-0.27,0.73,4,0,4,0.59,13577,87,88,33,81,756,715.0,660,458,60,120.0,390,1,440,544,279,0,0,725,-13312,-2830,713,,,,,,,,,,,,
440843,1560690746796,2,2.3,2.49,3.2,2.36,5.05,0.54,-0.3,0.81,3,1,3,0.62,13736,87,88,33,81,752,720.0,665,450,60,120.0,390,1,440,544,279,0,0,731,6658,-3580,720,45.701145,4.911853,68.04,197.1,3,2.7567,0,0.0,0.5983,4,0.48,7.3474
440863,1560690746816,3,2.3,2.49,3.2,2.35,5.06,0.51,-0.28,0.9,3,1,1,0.58,13827,87,88,33,80,749,719.0,668,461,60,123.0,390,1,440,544,279,0,0,733,-23490,-30694,718,,,,,,,,,,,,
440883,1560690746836,2,2.3,2.48,3.22,2.34,5.06,0.55,-0.16,0.97,3,-0,0,0.57,13736,87,88,33,81,744,723.0,664,460,60,120.0,390,1,440,544,279,0,0,745,-25858,-2356,721,,,,,,,,,,,,
440903,1560690746856,3,2.29,2.46,3.22,2.34,5.05,0.6,-0.11,0.9,3,-1,2,0.61,13746,87,88,33,81,738,727.0,668,449,60,120.0,390,1,440,544,283,0,0,740,-25858,-30694,726,,,,,,,,,,,,
440923,1560690746876,5,2.28,2.46,3.21,2.32,5.05,0.55,-0.12,0.81,3,0,2,0.57,13656,87,88,33,81,735,728.0,683,461,60,120.0,390,1,440,544,283,0,0,744,-4091,-30694,728,,,,,,,,,,,,
440943,1560690746896,0,2.28,2.46,3.15,2.33,5.07,0.63,-0.19,0.85,2,1,1,0.66,13817,87,88,33,81,733,729.0,671,461,60,120.0,390,1,440,544,283,0,0,736,-2918,1037,730,45.70113,4.91184,69.71,197.0,3,2.7567,0,0.0,0.6,4,0.48,7.3491
440963,1560690746916,5,2.28,2.44,3.14,2.32,5.07,0.57,-0.18,0.92,3,1,1,0.6,13827,88,88,33,81,732,731.0,679,443,60,122.0,390,1,440,544,283,0,0,743,-2830,-2314,727,,,,,,,,,,,,
440983,1560690746936,4,2.28,2.43,3.15,2.29,5.04,0.65,-0.19,1.03,2,1,0,0.67,13888,88,88,33,81,731,731.0,673,461,60,121.0,390,1,440,544,283,0,0,740,-2358,-31066,733,,,,,,,,,,,,
441003,1560690746956,0,2.27,2.42,3.17,2.27,5.06,0.72,-0.24,1.03,2,-2,-0,0.76,13888,88,88,33,81,733,736.0,674,471,60,121.0,389,1,440,544,287,0,0,744,-2826,-2826,736,,,,,,,,,,,,
441023,1560690746976,7,2.27,2.45,3.23,2.29,5.04,0.66,-0.2,0.84,2,-1,0,0.69,13847,88,88,33,81,734,735.0,679,449,60,120.0,389,1,440,544,287,0,0,748,-2826,-4096,734,,,,,,,,,,,,
441043,1560690746996,1,2.28,2.46,3.22,2.27,5.05,0.64,-0.21,0.81,1,-1,-0,0.67,13807,88,88,33,82,743,734.0,671,454,60,121.0,389,1,440,544,287,0,0,743,-31066,1037,732,45.70113,4.91184,69.71,197.0,3,2.7567,0,0.0,0.6,4,0.48,7.3507
441063,1560690747010,0,2.28,2.46,3.2,2.28,5.03,0.51,-0.23,0.79,1,2,-1,0.56,13982,88,88,33,81,753,736.0,678,467,60,121.0,389,1,440,544,287,0,0,744,-3580,-2830,736,,,,,,,,,,,,
441083,1560690747030,5,2.28,2.44,3.21,2.23,5.05,0.57,-0.13,0.79,2,-0,-1,0.58,13909,88,88,33,82,763,737.0,672,455,60,120.0,389,1,440,544,287,0,0,742,-3580,136,735,,,,,,,,,,,,
441103,1560690747050,6,2.29,2.42,3.28,2.23,5.03,0.63,-0.12,0.69,2,-0,-1,0.65,13899,84,88,33,81,771,739.0,661,447,60,120.0,388,1,440,544,286,0,0,746,-13068,-2314,739,,,,,,,,,,,,
441123,1560690747070,1,2.27,2.41,3.27,2.24,5.06,0.52,-0.18,0.67,1,1,-2,0.55,13950,68,88,33,77,789,744.0,679,469,60,124.0,388,1,440,514,286,0,0,748,-2826,-31066,744,,,,,,,,,,,,
441143,1560690747096,1,2.29,2.4,3.26,2.23,5.05,0.52,0.02,0.72,1,2,1,0.52,13646,52,88,33,71,810,744.0,677,462,60,120.0,388,1,440,472,286,0,0,754,-31066,-22795,741,45.701103,4.911814,71.21,197.0,3,2.7567,0,0.0,0.6033,4,0.48,7.3524
441163,1560690747116,2,2.29,2.41,3.23,2.24,5.07,0.56,-0.03,0.84,1,0,1,0.56,13646,35,88,33,62,826,742.0,670,451,60,121.0,388,1,440,412,286,0,0,739,-2826,-2830,741,,,,,,,,,,,,
441183,1560690747136,3,2.28,2.43,3.22,2.32,5.04,0.57,-0.05,0.91,1,1,3,0.57,13479,21,88,33,54,839,738.0,671,461,60,120.0,388,1,400,357,286,0,0,738,-3580,3462,738,,,,,,,,,,,,
441203,1560690747156,6,2.29,2.39,3.25,2.31,5.08,0.57,-0.15,0.95,1,-0,3,0.59,13185,12,88,33,46,859,738.0,673,461,60,121.0,202,1,373,254,150,0,0,740,-2826,-2356,738,,,,,,,,,,,,
441223,1560690747176,4,2.27,2.29,3.25,2.22,5.05,0.66,-0.19,0.96,0,-3,2,0.69,12984,9,88,33,40,887,739.0,667,461,60,121.0,202,1,336,231,150,0,0,735,-3580,-2826,743,,,,,,,,,,,,
441243,1560690747198,5,2.28,2.16,3.29,2.12,5.04,0.58,-0.09,0.95,2,0,3,0.59,12686,8,88,33,35,911,741.0,666,457,60,121.0,202,1,318,225,150,0,0,739,-2356,-2830,742,45.701084,4.911801,71.48,197.0,3,2.7567,0,0.0,0.605,4,0.48,7.3541
441263,1560690747218,2,2.28,2.15,3.42,2.08,5.05,0.6,-0.02,0.65,3,1,2,0.6,12541,7,88,33,31,926,742.0,663,456,60,122.0,202,1,305,223,150,0,0,716,-2356,-2918,742,,,,,,,,,,,,
441283,1560690747238,5,2.27,2.09,3.45,1.97,5.06,0.74,-0.16,0.78,2,2,3,0.76,12508,7,88,33,29,935,742.0,663,461,60,121.0,202,1,297,216,150,0,0,694,-2830,6658,744,,,,,,,,,,,,
441303,1560690747258,6,2.27,2.07,3.37,1.94,5.05,0.81,-0.13,0.75,1,3,4,0.82,12592,7,88,33,27,936,737.0,664,456,60,121.0,138,1,288,212,102,0,0,711,-31066,687,735,,,,,,,,,,,,
441323,1560690747278,4,2.28,2.12,3.29,1.95,5.08,0.86,-0.15,0.87,1,2,5,0.87,12567,7,88,33,26,932,732.0,665,460,60,122.0,138,1,284,210,102,0,0,713,-2358,16118,730,,,,,,,,,,,,
441343,1560690747298,1,2.28,2.16,3.27,1.96,5.04,0.9,-0.18,0.9,1,3,4,0.92,12533,6,88,33,25,916,725.0,660,467,60,121.0,138,1,280,208,102,0,0,706,-388,16599,723,45.701069,4.911788,71.16,197.0,3,2.7567,0,0.0,0.6067,4,0.48,7.3557
441363,1560690747318,2,2.27,2.15,3.22,1.95,5.04,0.91,-0.15,0.83,1,0,6,0.93,12558,7,88,33,24,900,720.0,670,461,60,121.0,138,1,280,203,102,0,0,707,-2830,11069,720,,,,,,,,,,,,
441383,1560690747338,4,2.27,2.14,3.31,1.95,5.08,0.95,-0.19,0.9,1,-2,4,0.96,12558,6,88,33,23,885,713.0,666,461,60,122.0,138,1,280,198,102,0,0,698,-2560,24,712,,,,,,,,,,,,
441403,1560690747358,5,2.27,2.13,3.47,1.94,5.06,1.04,-0.23,0.66,0,-4,2,1.06,12626,6,88,33,22,873,712.0,670,463,60,121.0,132,1,280,193,94,0,0,683,-3888,3543,708,,,,,,,,,,,,
441423,1560690747378,5,2.28,2.13,3.58,1.96,5.07,0.95,-0.24,0.79,-0,-7,1,0.98,12609,6,88,33,22,873,710.0,671,462,60,122.0,132,1,280,193,94,0,0,662,-13312,-2830,706,,,,,,,,,,,,
441443,1560690747398,4,2.27,2.15,3.59,1.99,5.07,0.8,-0.05,0.66,0,-4,0,0.8,12500,6,88,33,22,870,710.0,662,462,60,121.0,132,1,280,193,94,0,0,655,-30694,-10344,707,45.701054,4.911775,70.24,197.0,3,2.7567,0,0.0,0.6083,4,0.49,7.3574
441463,1560690747418,4,2.28,2.18,3.6,1.98,5.06,0.76,0.08,0.4,1,-3,1,0.76,12319,6,88,33,21,858,708.0,663,463,60,122.0,132,1,280,188,94,0,0,659,-30694,-10348,706,,,,,,,,,,,,
